id,category,variant,trial,status,latency_wall_s,latency_compute_s,expected_answer,final_output,correct,log_file
AR01,AR,phi2_server_nogrammar,1,ok,1.4177,1.3932,408,408,1,runs_server/20251221_180858/logs/AR01__phi2_server_nogrammar__t1.json
AR01,AR,phi2_server_grammar,1,ok,1.3627,1.3565,408,408,1,runs_server/20251221_180858/logs/AR01__phi2_server_grammar__t1.json
AR02,AR,phi2_server_nogrammar,1,ok,1.3972,1.3815,266,266,1,runs_server/20251221_180858/logs/AR02__phi2_server_nogrammar__t1.json
AR02,AR,phi2_server_grammar,1,ok,1.3607,1.3562,266,266,1,runs_server/20251221_180858/logs/AR02__phi2_server_grammar__t1.json
AR03,AR,phi2_server_nogrammar,1,ok,1.8142,1.7990,784,784,1,runs_server/20251221_180858/logs/AR03__phi2_server_nogrammar__t1.json
AR03,AR,phi2_server_grammar,1,ok,1.7969,1.7923,784,784,1,runs_server/20251221_180858/logs/AR03__phi2_server_grammar__t1.json
AR04,AR,phi2_server_nogrammar,1,ok,1.8300,1.8143,613,613,1,runs_server/20251221_180858/logs/AR04__phi2_server_nogrammar__t1.json
AR04,AR,phi2_server_grammar,1,ok,1.8341,1.8294,613,613,1,runs_server/20251221_180858/logs/AR04__phi2_server_grammar__t1.json
AR05,AR,phi2_server_nogrammar,1,ok,1.4363,1.4198,25,25,1,runs_server/20251221_180858/logs/AR05__phi2_server_nogrammar__t1.json
AR05,AR,phi2_server_grammar,1,ok,1.4278,1.4227,25,25,1,runs_server/20251221_180858/logs/AR05__phi2_server_grammar__t1.json
AR06,AR,phi2_server_nogrammar,1,ok,1.4201,1.4041,12,12,1,runs_server/20251221_180858/logs/AR06__phi2_server_nogrammar__t1.json
AR06,AR,phi2_server_grammar,1,ok,1.4049,1.4001,12,12,1,runs_server/20251221_180858/logs/AR06__phi2_server_grammar__t1.json
AR07,AR,phi2_server_nogrammar,1,ok,1.4268,1.4107,225,225,1,runs_server/20251221_180858/logs/AR07__phi2_server_nogrammar__t1.json
AR07,AR,phi2_server_grammar,1,ok,1.4333,1.4282,225,225,1,runs_server/20251221_180858/logs/AR07__phi2_server_grammar__t1.json
AR08,AR,phi2_server_nogrammar,1,ok,1.9193,1.9015,729,729,1,runs_server/20251221_180858/logs/AR08__phi2_server_nogrammar__t1.json
AR08,AR,phi2_server_grammar,1,ok,1.8992,1.8945,729,729,1,runs_server/20251221_180858/logs/AR08__phi2_server_grammar__t1.json
AR09,AR,phi2_server_nogrammar,1,ok,1.4285,1.4106,20,56,0,runs_server/20251221_180858/logs/AR09__phi2_server_nogrammar__t1.json
AR09,AR,phi2_server_grammar,1,ok,1.4109,1.4060,20,56,0,runs_server/20251221_180858/logs/AR09__phi2_server_grammar__t1.json
AR10,AR,phi2_server_nogrammar,1,ok,1.9040,1.8797,18,-54,0,runs_server/20251221_180858/logs/AR10__phi2_server_nogrammar__t1.json
AR10,AR,phi2_server_grammar,1,ok,1.9030,1.8983,18,-54,0,runs_server/20251221_180858/logs/AR10__phi2_server_grammar__t1.json
ALG01,ALG,phi2_server_nogrammar,1,ok,6.8233,6.8045,7,7,1,runs_server/20251221_180858/logs/ALG01__phi2_server_nogrammar__t1.json
ALG01,ALG,phi2_server_grammar,1,ok,2.3460,2.3412,7,7,1,runs_server/20251221_180858/logs/ALG01__phi2_server_grammar__t1.json
ALG02,ALG,phi2_server_nogrammar,1,ok,5.6169,5.5965,7,7,1,runs_server/20251221_180858/logs/ALG02__phi2_server_nogrammar__t1.json
ALG02,ALG,phi2_server_grammar,1,ok,2.3644,2.3592,7,7,1,runs_server/20251221_180858/logs/ALG02__phi2_server_grammar__t1.json
ALG03,ALG,phi2_server_nogrammar,1,ok,6.2292,6.2084,4,4,1,runs_server/20251221_180858/logs/ALG03__phi2_server_nogrammar__t1.json
ALG03,ALG,phi2_server_grammar,1,ok,2.3528,2.3480,4,4,1,runs_server/20251221_180858/logs/ALG03__phi2_server_grammar__t1.json
ALG04,ALG,phi2_server_nogrammar,1,ok,6.0750,6.0466,24,24,1,runs_server/20251221_180858/logs/ALG04__phi2_server_nogrammar__t1.json
ALG04,ALG,phi2_server_grammar,1,ok,2.3605,2.3555,24,24,1,runs_server/20251221_180858/logs/ALG04__phi2_server_grammar__t1.json
ALG05,ALG,phi2_server_nogrammar,1,ok,6.6122,6.5899,2,2,1,runs_server/20251221_180858/logs/ALG05__phi2_server_nogrammar__t1.json
ALG05,ALG,phi2_server_grammar,1,ok,2.3636,2.3587,2,2,1,runs_server/20251221_180858/logs/ALG05__phi2_server_grammar__t1.json
ALG06,ALG,phi2_server_nogrammar,1,ok,6.4025,6.3809,13,13,1,runs_server/20251221_180858/logs/ALG06__phi2_server_nogrammar__t1.json
ALG06,ALG,phi2_server_grammar,1,ok,2.4027,2.3977,13,13,1,runs_server/20251221_180858/logs/ALG06__phi2_server_grammar__t1.json
ALG07,ALG,phi2_server_nogrammar,1,ok,6.8255,6.8045,2,2,1,runs_server/20251221_180858/logs/ALG07__phi2_server_nogrammar__t1.json
ALG07,ALG,phi2_server_grammar,1,ok,2.4362,2.4309,2,2,1,runs_server/20251221_180858/logs/ALG07__phi2_server_grammar__t1.json
ALG08,ALG,phi2_server_nogrammar,1,ok,6.7849,6.7570,5,5,1,runs_server/20251221_180858/logs/ALG08__phi2_server_nogrammar__t1.json
ALG08,ALG,phi2_server_grammar,1,ok,2.4103,2.4054,5,5,1,runs_server/20251221_180858/logs/ALG08__phi2_server_grammar__t1.json
ALG09,ALG,phi2_server_nogrammar,1,ok,7.7244,7.7018,7,8,0,runs_server/20251221_180858/logs/ALG09__phi2_server_nogrammar__t1.json
ALG09,ALG,phi2_server_grammar,1,ok,2.4778,2.4726,7,8,0,runs_server/20251221_180858/logs/ALG09__phi2_server_grammar__t1.json
ALG10,ALG,phi2_server_nogrammar,1,ok,8.2182,8.1948,16,16,1,runs_server/20251221_180858/logs/ALG10__phi2_server_nogrammar__t1.json
ALG10,ALG,phi2_server_grammar,1,ok,2.4460,2.4412,16,16,1,runs_server/20251221_180858/logs/ALG10__phi2_server_grammar__t1.json
LOG01,LOG,phi2_server_nogrammar,1,ok,16.6362,16.6313,Yes,Yes,1,runs_server/20251221_180858/logs/LOG01__phi2_server_nogrammar__t1.json
LOG01,LOG,phi2_server_grammar,1,ok,1.5593,1.5542,Yes,Yes,1,runs_server/20251221_180858/logs/LOG01__phi2_server_grammar__t1.json
LOG02,LOG,phi2_server_nogrammar,1,ok,11.6653,11.6385,No,Yes,0,runs_server/20251221_180858/logs/LOG02__phi2_server_nogrammar__t1.json
LOG02,LOG,phi2_server_grammar,1,ok,1.6251,1.6199,No,Yes,0,runs_server/20251221_180858/logs/LOG02__phi2_server_grammar__t1.json
LOG03,LOG,phi2_server_nogrammar,1,ok,12.9798,12.9564,No,Yes,0,runs_server/20251221_180858/logs/LOG03__phi2_server_nogrammar__t1.json
LOG03,LOG,phi2_server_grammar,1,ok,1.6008,1.5959,No,Yes,0,runs_server/20251221_180858/logs/LOG03__phi2_server_grammar__t1.json
LOG04,LOG,phi2_server_nogrammar,1,ok,8.6422,8.6172,Yes,Yes,1,runs_server/20251221_180858/logs/LOG04__phi2_server_nogrammar__t1.json
LOG04,LOG,phi2_server_grammar,1,ok,1.6336,1.6267,Yes,Yes,1,runs_server/20251221_180858/logs/LOG04__phi2_server_grammar__t1.json
LOG05,LOG,phi2_server_nogrammar,1,ok,8.0802,8.0400,Yes,Yes,1,runs_server/20251221_180858/logs/LOG05__phi2_server_nogrammar__t1.json
LOG05,LOG,phi2_server_grammar,1,ok,1.5612,1.5534,Yes,Yes,1,runs_server/20251221_180858/logs/LOG05__phi2_server_grammar__t1.json
LOG06,LOG,phi2_server_nogrammar,1,ok,12.3976,12.3760,Yes,Yes,1,runs_server/20251221_180858/logs/LOG06__phi2_server_nogrammar__t1.json
LOG06,LOG,phi2_server_grammar,1,ok,1.6540,1.6470,Yes,Yes,1,runs_server/20251221_180858/logs/LOG06__phi2_server_grammar__t1.json
LOG07,LOG,phi2_server_nogrammar,1,ok,13.4695,13.4190,No,No,1,runs_server/20251221_180858/logs/LOG07__phi2_server_nogrammar__t1.json
LOG07,LOG,phi2_server_grammar,1,ok,1.5618,1.5564,No,No,1,runs_server/20251221_180858/logs/LOG07__phi2_server_grammar__t1.json
LOG08,LOG,phi2_server_nogrammar,1,ok,15.3640,15.3369,No,Yes,0,runs_server/20251221_180858/logs/LOG08__phi2_server_nogrammar__t1.json
LOG08,LOG,phi2_server_grammar,1,ok,1.7025,1.6940,No,Yes,0,runs_server/20251221_180858/logs/LOG08__phi2_server_grammar__t1.json
LOG09,LOG,phi2_server_nogrammar,1,ok,11.7387,11.7103,No,No,1,runs_server/20251221_180858/logs/LOG09__phi2_server_nogrammar__t1.json
LOG09,LOG,phi2_server_grammar,1,ok,1.6321,1.6271,No,No,1,runs_server/20251221_180858/logs/LOG09__phi2_server_grammar__t1.json
LOG10,LOG,phi2_server_nogrammar,1,ok,12.7468,12.7223,Yes,No,0,runs_server/20251221_180858/logs/LOG10__phi2_server_nogrammar__t1.json
LOG10,LOG,phi2_server_grammar,1,ok,1.6099,1.6020,Yes,No,0,runs_server/20251221_180858/logs/LOG10__phi2_server_grammar__t1.json
WP01,WP,phi2_server_nogrammar,1,ok,11.3263,11.3021,48,48,1,runs_server/20251221_180858/logs/WP01__phi2_server_nogrammar__t1.json
WP01,WP,phi2_server_grammar,1,ok,1.6028,1.5977,48,48,1,runs_server/20251221_180858/logs/WP01__phi2_server_grammar__t1.json
WP02,WP,phi2_server_nogrammar,1,ok,9.1720,9.1457,40,40,1,runs_server/20251221_180858/logs/WP02__phi2_server_nogrammar__t1.json
WP02,WP,phi2_server_grammar,1,ok,1.6278,1.6226,40,40,1,runs_server/20251221_180858/logs/WP02__phi2_server_grammar__t1.json
WP03,WP,phi2_server_nogrammar,1,ok,9.6668,9.6443,18,18,1,runs_server/20251221_180858/logs/WP03__phi2_server_nogrammar__t1.json
WP03,WP,phi2_server_grammar,1,ok,1.6612,1.6563,18,18,1,runs_server/20251221_180858/logs/WP03__phi2_server_grammar__t1.json
WP04,WP,phi2_server_nogrammar,1,ok,11.2530,11.2307,30,30,1,runs_server/20251221_180858/logs/WP04__phi2_server_nogrammar__t1.json
WP04,WP,phi2_server_grammar,1,ok,1.6265,1.6213,30,30,1,runs_server/20251221_180858/logs/WP04__phi2_server_grammar__t1.json
WP05,WP,phi2_server_nogrammar,1,ok,10.5268,10.5013,2,2,1,runs_server/20251221_180858/logs/WP05__phi2_server_nogrammar__t1.json
WP05,WP,phi2_server_grammar,1,ok,2.2272,2.2219,2,2,1,runs_server/20251221_180858/logs/WP05__phi2_server_grammar__t1.json
WP06,WP,phi2_server_nogrammar,1,ok,10.3417,10.3172,10,10,1,runs_server/20251221_180858/logs/WP06__phi2_server_nogrammar__t1.json
WP06,WP,phi2_server_grammar,1,ok,1.5964,1.5912,10,10,1,runs_server/20251221_180858/logs/WP06__phi2_server_grammar__t1.json
WP07,WP,phi2_server_nogrammar,1,ok,9.9891,9.9625,4,4,1,runs_server/20251221_180858/logs/WP07__phi2_server_nogrammar__t1.json
WP07,WP,phi2_server_grammar,1,ok,1.6535,1.6457,4,4,1,runs_server/20251221_180858/logs/WP07__phi2_server_grammar__t1.json
WP08,WP,phi2_server_nogrammar,1,ok,11.2085,11.1851,35,35,1,runs_server/20251221_180858/logs/WP08__phi2_server_nogrammar__t1.json
WP08,WP,phi2_server_grammar,1,ok,1.5967,1.5915,35,35,1,runs_server/20251221_180858/logs/WP08__phi2_server_grammar__t1.json
WP09,WP,phi2_server_nogrammar,1,ok,10.8931,10.8679,30,30,1,runs_server/20251221_180858/logs/WP09__phi2_server_nogrammar__t1.json
WP09,WP,phi2_server_grammar,1,ok,1.7075,1.7026,30,30,1,runs_server/20251221_180858/logs/WP09__phi2_server_grammar__t1.json
WP10,WP,phi2_server_nogrammar,1,ok,10.0969,10.0709,120,120,1,runs_server/20251221_180858/logs/WP10__phi2_server_nogrammar__t1.json
WP10,WP,phi2_server_grammar,1,ok,1.6072,1.5991,120,120,1,runs_server/20251221_180858/logs/WP10__phi2_server_grammar__t1.json
AR11,AR,phi2_server_nogrammar,1,ok,7.6381,7.6093,180,240,0,runs_server/20251221_180858/logs/AR11__phi2_server_nogrammar__t1.json
AR11,AR,phi2_server_grammar,1,ok,1.6096,1.6020,180,240,0,runs_server/20251221_180858/logs/AR11__phi2_server_grammar__t1.json
AR12,AR,phi2_server_nogrammar,1,ok,9.0164,8.9959,227,443,0,runs_server/20251221_180858/logs/AR12__phi2_server_nogrammar__t1.json
AR12,AR,phi2_server_grammar,1,ok,3.9243,3.9194,227,443,0,runs_server/20251221_180858/logs/AR12__phi2_server_grammar__t1.json
AR13,AR,phi2_server_nogrammar,1,ok,6.1974,6.1764,23,23,1,runs_server/20251221_180858/logs/AR13__phi2_server_nogrammar__t1.json
AR13,AR,phi2_server_grammar,1,ok,1.6869,1.6796,23,23,1,runs_server/20251221_180858/logs/AR13__phi2_server_grammar__t1.json
AR14,AR,phi2_server_nogrammar,1,ok,6.6401,6.6212,4524,4446,0,runs_server/20251221_180858/logs/AR14__phi2_server_nogrammar__t1.json
AR14,AR,phi2_server_grammar,1,ok,2.3239,2.3173,4524,4446,0,runs_server/20251221_180858/logs/AR14__phi2_server_grammar__t1.json
AR15,AR,phi2_server_nogrammar,1,ok,9.3019,9.2828,931,589,0,runs_server/20251221_180858/logs/AR15__phi2_server_nogrammar__t1.json
AR15,AR,phi2_server_grammar,1,ok,2.1408,2.1359,931,589,0,runs_server/20251221_180858/logs/AR15__phi2_server_grammar__t1.json
AR16,AR,phi2_server_nogrammar,1,ok,6.3499,6.3274,25,25,1,runs_server/20251221_180858/logs/AR16__phi2_server_nogrammar__t1.json
AR16,AR,phi2_server_grammar,1,ok,1.6222,1.6168,25,25,1,runs_server/20251221_180858/logs/AR16__phi2_server_grammar__t1.json
AR17,AR,phi2_server_nogrammar,1,ok,7.8315,7.8070,90,90,1,runs_server/20251221_180858/logs/AR17__phi2_server_nogrammar__t1.json
AR17,AR,phi2_server_grammar,1,ok,1.6207,1.6157,90,90,1,runs_server/20251221_180858/logs/AR17__phi2_server_grammar__t1.json
AR18,AR,phi2_server_nogrammar,1,ok,7.9075,7.8843,499,441,0,runs_server/20251221_180858/logs/AR18__phi2_server_nogrammar__t1.json
AR18,AR,phi2_server_grammar,1,ok,2.2696,2.2619,499,441,0,runs_server/20251221_180858/logs/AR18__phi2_server_grammar__t1.json
AR19,AR,phi2_server_nogrammar,1,ok,7.3277,7.2997,8,8,1,runs_server/20251221_180858/logs/AR19__phi2_server_nogrammar__t1.json
AR19,AR,phi2_server_grammar,1,ok,1.6614,1.6563,8,8,1,runs_server/20251221_180858/logs/AR19__phi2_server_grammar__t1.json
AR20,AR,phi2_server_nogrammar,1,ok,6.9979,6.9776,130,130,1,runs_server/20251221_180858/logs/AR20__phi2_server_nogrammar__t1.json
AR20,AR,phi2_server_grammar,1,ok,1.7161,1.7099,130,130,1,runs_server/20251221_180858/logs/AR20__phi2_server_grammar__t1.json
AR21,AR,phi2_server_nogrammar,1,ok,7.4290,7.4052,152,160,0,runs_server/20251221_180858/logs/AR21__phi2_server_nogrammar__t1.json
AR21,AR,phi2_server_grammar,1,ok,1.5870,1.5820,152,160,0,runs_server/20251221_180858/logs/AR21__phi2_server_grammar__t1.json
AR22,AR,phi2_server_nogrammar,1,ok,7.6255,7.6125,97,-115,0,runs_server/20251221_180858/logs/AR22__phi2_server_nogrammar__t1.json
AR22,AR,phi2_server_grammar,1,ok,2.2523,2.2473,97,-115,0,runs_server/20251221_180858/logs/AR22__phi2_server_grammar__t1.json
AR23,AR,phi2_server_nogrammar,1,ok,6.3095,6.2898,10,10,1,runs_server/20251221_180858/logs/AR23__phi2_server_nogrammar__t1.json
AR23,AR,phi2_server_grammar,1,ok,1.6651,1.6594,10,10,1,runs_server/20251221_180858/logs/AR23__phi2_server_grammar__t1.json
AR24,AR,phi2_server_nogrammar,1,ok,6.9240,6.9013,2660,2660,1,runs_server/20251221_180858/logs/AR24__phi2_server_nogrammar__t1.json
AR24,AR,phi2_server_grammar,1,ok,2.2617,2.2566,2660,2660,1,runs_server/20251221_180858/logs/AR24__phi2_server_grammar__t1.json
AR25,AR,phi2_server_nogrammar,1,ok,8.8681,8.8475,228,312,0,runs_server/20251221_180858/logs/AR25__phi2_server_nogrammar__t1.json
AR25,AR,phi2_server_grammar,1,ok,1.6655,1.6585,228,312,0,runs_server/20251221_180858/logs/AR25__phi2_server_grammar__t1.json
AR26,AR,phi2_server_nogrammar,1,ok,6.9825,6.9605,14641,14641,1,runs_server/20251221_180858/logs/AR26__phi2_server_nogrammar__t1.json
AR26,AR,phi2_server_grammar,1,ok,2.2436,2.2387,14641,14641,1,runs_server/20251221_180858/logs/AR26__phi2_server_grammar__t1.json
AR27,AR,phi2_server_nogrammar,1,ok,8.3922,8.3634,225,1125,0,runs_server/20251221_180858/logs/AR27__phi2_server_nogrammar__t1.json
AR27,AR,phi2_server_grammar,1,ok,2.1460,2.1411,225,1125,0,runs_server/20251221_180858/logs/AR27__phi2_server_grammar__t1.json
AR28,AR,phi2_server_nogrammar,1,ok,8.5482,8.5271,922,998,0,runs_server/20251221_180858/logs/AR28__phi2_server_nogrammar__t1.json
AR28,AR,phi2_server_grammar,1,ok,2.2265,2.2206,922,998,0,runs_server/20251221_180858/logs/AR28__phi2_server_grammar__t1.json
AR29,AR,phi2_server_nogrammar,1,ok,7.5740,7.5482,99,99,1,runs_server/20251221_180858/logs/AR29__phi2_server_nogrammar__t1.json
AR29,AR,phi2_server_grammar,1,ok,1.6265,1.6215,99,99,1,runs_server/20251221_180858/logs/AR29__phi2_server_grammar__t1.json
AR30,AR,phi2_server_nogrammar,1,ok,6.7169,6.6900,8,8,1,runs_server/20251221_180858/logs/AR30__phi2_server_nogrammar__t1.json
AR30,AR,phi2_server_grammar,1,ok,1.7817,1.7731,8,8,1,runs_server/20251221_180858/logs/AR30__phi2_server_grammar__t1.json
AR31,AR,phi2_server_nogrammar,1,ok,7.8342,7.8149,1113,665,0,runs_server/20251221_180858/logs/AR31__phi2_server_nogrammar__t1.json
AR31,AR,phi2_server_grammar,1,ok,2.2319,2.2243,1113,665,0,runs_server/20251221_180858/logs/AR31__phi2_server_grammar__t1.json
AR32,AR,phi2_server_nogrammar,1,ok,7.1158,7.0910,-224,-28,0,runs_server/20251221_180858/logs/AR32__phi2_server_nogrammar__t1.json
AR32,AR,phi2_server_grammar,1,ok,2.2188,2.2115,-224,-28,0,runs_server/20251221_180858/logs/AR32__phi2_server_grammar__t1.json
AR33,AR,phi2_server_nogrammar,1,ok,6.4607,6.4405,19,19,1,runs_server/20251221_180858/logs/AR33__phi2_server_nogrammar__t1.json
AR33,AR,phi2_server_grammar,1,ok,1.7241,1.7167,19,19,1,runs_server/20251221_180858/logs/AR33__phi2_server_grammar__t1.json
AR34,AR,phi2_server_nogrammar,1,ok,6.7878,6.7730,8645,8555,0,runs_server/20251221_180858/logs/AR34__phi2_server_nogrammar__t1.json
AR34,AR,phi2_server_grammar,1,ok,2.2957,2.2859,8645,8555,0,runs_server/20251221_180858/logs/AR34__phi2_server_grammar__t1.json
AR35,AR,phi2_server_nogrammar,1,ok,9.5585,9.5395,1264,992,0,runs_server/20251221_180858/logs/AR35__phi2_server_nogrammar__t1.json
AR35,AR,phi2_server_grammar,1,ok,2.2098,2.2023,1264,992,0,runs_server/20251221_180858/logs/AR35__phi2_server_grammar__t1.json
AR36,AR,phi2_server_nogrammar,1,ok,6.3523,6.3301,10000,10000,1,runs_server/20251221_180858/logs/AR36__phi2_server_nogrammar__t1.json
AR36,AR,phi2_server_grammar,1,ok,1.6516,1.6449,10000,10000,1,runs_server/20251221_180858/logs/AR36__phi2_server_grammar__t1.json
AR37,AR,phi2_server_nogrammar,1,ok,7.9646,7.9442,27,27,1,runs_server/20251221_180858/logs/AR37__phi2_server_nogrammar__t1.json
AR37,AR,phi2_server_grammar,1,ok,1.7421,1.7322,27,27,1,runs_server/20251221_180858/logs/AR37__phi2_server_grammar__t1.json
AR38,AR,phi2_server_nogrammar,1,ok,7.9765,7.9555,649,657,0,runs_server/20251221_180858/logs/AR38__phi2_server_nogrammar__t1.json
AR38,AR,phi2_server_grammar,1,ok,2.2565,2.2514,649,657,0,runs_server/20251221_180858/logs/AR38__phi2_server_grammar__t1.json
AR39,AR,phi2_server_nogrammar,1,ok,7.4467,7.4261,31,31,1,runs_server/20251221_180858/logs/AR39__phi2_server_nogrammar__t1.json
AR39,AR,phi2_server_grammar,1,ok,1.7334,1.7287,31,31,1,runs_server/20251221_180858/logs/AR39__phi2_server_grammar__t1.json
AR40,AR,phi2_server_nogrammar,1,ok,6.7314,6.7068,41,41,1,runs_server/20251221_180858/logs/AR40__phi2_server_nogrammar__t1.json
AR40,AR,phi2_server_grammar,1,ok,1.7646,1.7594,41,41,1,runs_server/20251221_180858/logs/AR40__phi2_server_grammar__t1.json
AR41,AR,phi2_server_nogrammar,1,ok,8.0926,8.0706,696,896,0,runs_server/20251221_180858/logs/AR41__phi2_server_nogrammar__t1.json
AR41,AR,phi2_server_grammar,1,ok,2.2579,2.2509,696,896,0,runs_server/20251221_180858/logs/AR41__phi2_server_grammar__t1.json
AR42,AR,phi2_server_nogrammar,1,ok,7.1563,7.1185,281,287,0,runs_server/20251221_180858/logs/AR42__phi2_server_nogrammar__t1.json
AR42,AR,phi2_server_grammar,1,ok,1.6315,1.6234,281,287,0,runs_server/20251221_180858/logs/AR42__phi2_server_grammar__t1.json
AR43,AR,phi2_server_nogrammar,1,ok,6.4363,6.4189,22,22,1,runs_server/20251221_180858/logs/AR43__phi2_server_nogrammar__t1.json
AR43,AR,phi2_server_grammar,1,ok,1.7844,1.7750,22,22,1,runs_server/20251221_180858/logs/AR43__phi2_server_grammar__t1.json
AR44,AR,phi2_server_nogrammar,1,ok,6.8116,6.7920,5040,5040,1,runs_server/20251221_180858/logs/AR44__phi2_server_nogrammar__t1.json
AR44,AR,phi2_server_grammar,1,ok,2.3285,2.3190,5040,5040,1,runs_server/20251221_180858/logs/AR44__phi2_server_grammar__t1.json
AR45,AR,phi2_server_nogrammar,1,ok,9.0596,9.0269,330,550,0,runs_server/20251221_180858/logs/AR45__phi2_server_nogrammar__t1.json
AR45,AR,phi2_server_grammar,1,ok,1.6975,1.6924,330,550,0,runs_server/20251221_180858/logs/AR45__phi2_server_grammar__t1.json
AR46,AR,phi2_server_nogrammar,1,ok,2.2740,2.2481,14641,14641,1,runs_server/20251221_180858/logs/AR46__phi2_server_nogrammar__t1.json
AR46,AR,phi2_server_grammar,1,ok,2.2836,2.2759,14641,14641,1,runs_server/20251221_180858/logs/AR46__phi2_server_grammar__t1.json
AR47,AR,phi2_server_nogrammar,1,ok,8.3512,8.3383,474,456,0,runs_server/20251221_180858/logs/AR47__phi2_server_nogrammar__t1.json
AR47,AR,phi2_server_grammar,1,ok,2.2908,2.2857,474,456,0,runs_server/20251221_180858/logs/AR47__phi2_server_grammar__t1.json
AR48,AR,phi2_server_nogrammar,1,ok,8.3055,8.2762,657,567,0,runs_server/20251221_180858/logs/AR48__phi2_server_nogrammar__t1.json
AR48,AR,phi2_server_grammar,1,ok,2.3039,2.2960,657,567,0,runs_server/20251221_180858/logs/AR48__phi2_server_grammar__t1.json
AR49,AR,phi2_server_nogrammar,1,ok,7.4880,7.4674,180,180,1,runs_server/20251221_180858/logs/AR49__phi2_server_nogrammar__t1.json
AR49,AR,phi2_server_grammar,1,ok,1.7000,1.6920,180,180,1,runs_server/20251221_180858/logs/AR49__phi2_server_grammar__t1.json
AR50,AR,phi2_server_nogrammar,1,ok,6.7316,6.7064,98,108,0,runs_server/20251221_180858/logs/AR50__phi2_server_nogrammar__t1.json
AR50,AR,phi2_server_grammar,1,ok,1.8011,1.7933,98,108,0,runs_server/20251221_180858/logs/AR50__phi2_server_grammar__t1.json
AR51,AR,phi2_server_nogrammar,1,ok,8.0628,8.0431,1116,918,0,runs_server/20251221_180858/logs/AR51__phi2_server_nogrammar__t1.json
AR51,AR,phi2_server_grammar,1,ok,2.2818,2.2739,1116,918,0,runs_server/20251221_180858/logs/AR51__phi2_server_grammar__t1.json
AR52,AR,phi2_server_nogrammar,1,ok,7.7520,7.7296,32,-28,0,runs_server/20251221_180858/logs/AR52__phi2_server_nogrammar__t1.json
AR52,AR,phi2_server_grammar,1,ok,2.1563,2.1485,32,-28,0,runs_server/20251221_180858/logs/AR52__phi2_server_grammar__t1.json
AR53,AR,phi2_server_nogrammar,1,ok,6.4170,6.4034,27,27,1,runs_server/20251221_180858/logs/AR53__phi2_server_nogrammar__t1.json
AR53,AR,phi2_server_grammar,1,ok,1.6911,1.6860,27,27,1,runs_server/20251221_180858/logs/AR53__phi2_server_grammar__t1.json
AR54,AR,phi2_server_nogrammar,1,ok,6.4218,6.4012,504,504,1,runs_server/20251221_180858/logs/AR54__phi2_server_nogrammar__t1.json
AR54,AR,phi2_server_grammar,1,ok,1.6794,1.6715,504,504,1,runs_server/20251221_180858/logs/AR54__phi2_server_grammar__t1.json
AR55,AR,phi2_server_nogrammar,1,ok,8.4497,8.4214,912,882,0,runs_server/20251221_180858/logs/AR55__phi2_server_nogrammar__t1.json
AR55,AR,phi2_server_grammar,1,ok,2.2943,2.2893,912,882,0,runs_server/20251221_180858/logs/AR55__phi2_server_grammar__t1.json
AR56,AR,phi2_server_nogrammar,1,ok,2.2967,2.2686,14641,14641,1,runs_server/20251221_180858/logs/AR56__phi2_server_nogrammar__t1.json
AR56,AR,phi2_server_grammar,1,ok,2.2605,2.2528,14641,14641,1,runs_server/20251221_180858/logs/AR56__phi2_server_grammar__t1.json
AR57,AR,phi2_server_nogrammar,1,ok,8.1111,8.0991,204,306,0,runs_server/20251221_180858/logs/AR57__phi2_server_nogrammar__t1.json
AR57,AR,phi2_server_grammar,1,ok,1.6595,1.6546,204,306,0,runs_server/20251221_180858/logs/AR57__phi2_server_grammar__t1.json
AR58,AR,phi2_server_nogrammar,1,ok,8.5387,8.5255,675,707,0,runs_server/20251221_180858/logs/AR58__phi2_server_nogrammar__t1.json
AR58,AR,phi2_server_grammar,1,ok,2.3476,2.3381,675,707,0,runs_server/20251221_180858/logs/AR58__phi2_server_grammar__t1.json
AR59,AR,phi2_server_nogrammar,1,ok,6.9853,6.9398,55,55,1,runs_server/20251221_180858/logs/AR59__phi2_server_nogrammar__t1.json
AR59,AR,phi2_server_grammar,1,ok,1.6817,1.6751,55,55,1,runs_server/20251221_180858/logs/AR59__phi2_server_grammar__t1.json
AR60,AR,phi2_server_nogrammar,1,ok,6.7617,6.7330,108,108,1,runs_server/20251221_180858/logs/AR60__phi2_server_nogrammar__t1.json
AR60,AR,phi2_server_grammar,1,ok,1.6914,1.6864,108,108,1,runs_server/20251221_180858/logs/AR60__phi2_server_grammar__t1.json
AR61,AR,phi2_server_nogrammar,1,ok,8.1960,8.1786,408,846,0,runs_server/20251221_180858/logs/AR61__phi2_server_nogrammar__t1.json
AR61,AR,phi2_server_grammar,1,ok,2.3248,2.3181,408,846,0,runs_server/20251221_180858/logs/AR61__phi2_server_grammar__t1.json
AR62,AR,phi2_server_nogrammar,1,ok,7.1298,7.0912,259,293,0,runs_server/20251221_180858/logs/AR62__phi2_server_nogrammar__t1.json
AR62,AR,phi2_server_grammar,1,ok,1.6729,1.6632,259,293,0,runs_server/20251221_180858/logs/AR62__phi2_server_grammar__t1.json
AR63,AR,phi2_server_nogrammar,1,ok,6.5213,6.4995,17,17,1,runs_server/20251221_180858/logs/AR63__phi2_server_nogrammar__t1.json
AR63,AR,phi2_server_grammar,1,ok,1.7842,1.7762,17,17,1,runs_server/20251221_180858/logs/AR63__phi2_server_grammar__t1.json
AR64,AR,phi2_server_nogrammar,1,ok,6.5175,6.4977,980,980,1,runs_server/20251221_180858/logs/AR64__phi2_server_nogrammar__t1.json
AR64,AR,phi2_server_grammar,1,ok,1.7160,1.7082,980,980,1,runs_server/20251221_180858/logs/AR64__phi2_server_grammar__t1.json
AR65,AR,phi2_server_nogrammar,1,ok,8.6702,8.6455,1064,656,0,runs_server/20251221_180858/logs/AR65__phi2_server_nogrammar__t1.json
AR65,AR,phi2_server_grammar,1,ok,2.3328,2.3270,1064,656,0,runs_server/20251221_180858/logs/AR65__phi2_server_grammar__t1.json
AR66,AR,phi2_server_nogrammar,1,ok,5.6336,5.6126,100,100,1,runs_server/20251221_180858/logs/AR66__phi2_server_nogrammar__t1.json
AR66,AR,phi2_server_grammar,1,ok,1.7170,1.7088,100,100,1,runs_server/20251221_180858/logs/AR66__phi2_server_grammar__t1.json
AR67,AR,phi2_server_nogrammar,1,ok,8.0725,8.0585,384,768,0,runs_server/20251221_180858/logs/AR67__phi2_server_nogrammar__t1.json
AR67,AR,phi2_server_grammar,1,ok,1.7242,1.7138,384,768,0,runs_server/20251221_180858/logs/AR67__phi2_server_grammar__t1.json
AR68,AR,phi2_server_nogrammar,1,ok,7.5207,7.4936,233,167,0,runs_server/20251221_180858/logs/AR68__phi2_server_nogrammar__t1.json
AR68,AR,phi2_server_grammar,1,ok,1.7735,1.7626,233,167,0,runs_server/20251221_180858/logs/AR68__phi2_server_grammar__t1.json
AR69,AR,phi2_server_nogrammar,1,ok,7.4628,7.4401,95,95,1,runs_server/20251221_180858/logs/AR69__phi2_server_nogrammar__t1.json
AR69,AR,phi2_server_grammar,1,ok,1.7376,1.7305,95,95,1,runs_server/20251221_180858/logs/AR69__phi2_server_grammar__t1.json
AR70,AR,phi2_server_nogrammar,1,ok,6.8315,6.8041,146,146,1,runs_server/20251221_180858/logs/AR70__phi2_server_nogrammar__t1.json
AR70,AR,phi2_server_grammar,1,ok,1.6773,1.6692,146,146,1,runs_server/20251221_180858/logs/AR70__phi2_server_grammar__t1.json
AR71,AR,phi2_server_nogrammar,1,ok,7.9898,7.9720,810,846,0,runs_server/20251221_180858/logs/AR71__phi2_server_nogrammar__t1.json
AR71,AR,phi2_server_grammar,1,ok,2.2267,2.2195,810,846,0,runs_server/20251221_180858/logs/AR71__phi2_server_grammar__t1.json
AR72,AR,phi2_server_nogrammar,1,ok,7.9095,7.8735,-100,-36,0,runs_server/20251221_180858/logs/AR72__phi2_server_nogrammar__t1.json
AR72,AR,phi2_server_grammar,1,ok,2.3561,2.3508,-100,-36,0,runs_server/20251221_180858/logs/AR72__phi2_server_grammar__t1.json
AR73,AR,phi2_server_nogrammar,1,ok,6.3766,6.3617,28,28,1,runs_server/20251221_180858/logs/AR73__phi2_server_nogrammar__t1.json
AR73,AR,phi2_server_grammar,1,ok,1.7127,1.7050,28,28,1,runs_server/20251221_180858/logs/AR73__phi2_server_grammar__t1.json
AR74,AR,phi2_server_nogrammar,1,ok,7.0932,7.0744,4134,4134,1,runs_server/20251221_180858/logs/AR74__phi2_server_nogrammar__t1.json
AR74,AR,phi2_server_grammar,1,ok,2.2457,2.2402,4134,4134,1,runs_server/20251221_180858/logs/AR74__phi2_server_grammar__t1.json
AR75,AR,phi2_server_nogrammar,1,ok,8.3428,8.3136,404,364,0,runs_server/20251221_180858/logs/AR75__phi2_server_nogrammar__t1.json
AR75,AR,phi2_server_grammar,1,ok,1.7887,1.7777,404,364,0,runs_server/20251221_180858/logs/AR75__phi2_server_grammar__t1.json
AR76,AR,phi2_server_nogrammar,1,ok,6.9794,6.9541,2744,2744,1,runs_server/20251221_180858/logs/AR76__phi2_server_nogrammar__t1.json
AR76,AR,phi2_server_grammar,1,ok,2.2818,2.2761,2744,2744,1,runs_server/20251221_180858/logs/AR76__phi2_server_grammar__t1.json
AR77,AR,phi2_server_nogrammar,1,ok,7.9253,7.9132,280,560,0,runs_server/20251221_180858/logs/AR77__phi2_server_nogrammar__t1.json
AR77,AR,phi2_server_grammar,1,ok,1.8095,1.8027,280,560,0,runs_server/20251221_180858/logs/AR77__phi2_server_grammar__t1.json
AR78,AR,phi2_server_nogrammar,1,ok,8.0067,7.9838,648,572,0,runs_server/20251221_180858/logs/AR78__phi2_server_nogrammar__t1.json
AR78,AR,phi2_server_grammar,1,ok,2.2357,2.2292,648,572,0,runs_server/20251221_180858/logs/AR78__phi2_server_grammar__t1.json
AR79,AR,phi2_server_nogrammar,1,ok,7.8065,7.7800,54,54,1,runs_server/20251221_180858/logs/AR79__phi2_server_nogrammar__t1.json
AR79,AR,phi2_server_grammar,1,ok,1.7223,1.7133,54,54,1,runs_server/20251221_180858/logs/AR79__phi2_server_grammar__t1.json
AR80,AR,phi2_server_nogrammar,1,ok,6.8289,6.7989,32,32,1,runs_server/20251221_180858/logs/AR80__phi2_server_nogrammar__t1.json
AR80,AR,phi2_server_grammar,1,ok,1.7032,1.6984,32,32,1,runs_server/20251221_180858/logs/AR80__phi2_server_grammar__t1.json
AR81,AR,phi2_server_nogrammar,1,ok,8.1290,8.1064,301,539,0,runs_server/20251221_180858/logs/AR81__phi2_server_nogrammar__t1.json
AR81,AR,phi2_server_grammar,1,ok,2.2828,2.2752,301,539,0,runs_server/20251221_180858/logs/AR81__phi2_server_grammar__t1.json
AR82,AR,phi2_server_nogrammar,1,ok,7.5056,7.4849,324,4,0,runs_server/20251221_180858/logs/AR82__phi2_server_nogrammar__t1.json
AR82,AR,phi2_server_grammar,1,ok,1.7318,1.7269,324,4,0,runs_server/20251221_180858/logs/AR82__phi2_server_grammar__t1.json
AR83,AR,phi2_server_nogrammar,1,ok,6.4025,6.3869,10,10,1,runs_server/20251221_180858/logs/AR83__phi2_server_nogrammar__t1.json
AR83,AR,phi2_server_grammar,1,ok,1.7148,1.7054,10,10,1,runs_server/20251221_180858/logs/AR83__phi2_server_grammar__t1.json
AR84,AR,phi2_server_nogrammar,1,ok,7.0887,7.0559,1817,1767,0,runs_server/20251221_180858/logs/AR84__phi2_server_nogrammar__t1.json
AR84,AR,phi2_server_grammar,1,ok,2.2417,2.2322,1817,1767,0,runs_server/20251221_180858/logs/AR84__phi2_server_grammar__t1.json
AR85,AR,phi2_server_nogrammar,1,ok,8.6081,8.5691,665,721,0,runs_server/20251221_180858/logs/AR85__phi2_server_nogrammar__t1.json
AR85,AR,phi2_server_grammar,1,ok,2.2499,2.2449,665,721,0,runs_server/20251221_180858/logs/AR85__phi2_server_grammar__t1.json
AR86,AR,phi2_server_nogrammar,1,ok,6.4980,6.4758,216,216,1,runs_server/20251221_180858/logs/AR86__phi2_server_nogrammar__t1.json
AR86,AR,phi2_server_grammar,1,ok,1.6868,1.6803,216,216,1,runs_server/20251221_180858/logs/AR86__phi2_server_grammar__t1.json
AR87,AR,phi2_server_nogrammar,1,ok,8.0764,8.0603,155,155,1,runs_server/20251221_180858/logs/AR87__phi2_server_nogrammar__t1.json
AR87,AR,phi2_server_grammar,1,ok,1.7564,1.7498,155,155,1,runs_server/20251221_180858/logs/AR87__phi2_server_grammar__t1.json
AR88,AR,phi2_server_nogrammar,1,ok,8.1338,8.0983,412,438,0,runs_server/20251221_180858/logs/AR88__phi2_server_nogrammar__t1.json
AR88,AR,phi2_server_grammar,1,ok,2.2426,2.2332,412,438,0,runs_server/20251221_180858/logs/AR88__phi2_server_grammar__t1.json
AR89,AR,phi2_server_nogrammar,1,ok,7.5644,7.5412,9,9,1,runs_server/20251221_180858/logs/AR89__phi2_server_nogrammar__t1.json
AR89,AR,phi2_server_grammar,1,ok,1.5885,1.5830,9,9,1,runs_server/20251221_180858/logs/AR89__phi2_server_grammar__t1.json
AR90,AR,phi2_server_nogrammar,1,ok,6.9747,6.9316,78,78,1,runs_server/20251221_180858/logs/AR90__phi2_server_nogrammar__t1.json
AR90,AR,phi2_server_grammar,1,ok,1.6952,1.6902,78,78,1,runs_server/20251221_180858/logs/AR90__phi2_server_grammar__t1.json
AR91,AR,phi2_server_nogrammar,1,ok,7.7242,7.7063,276,408,0,runs_server/20251221_180858/logs/AR91__phi2_server_nogrammar__t1.json
AR91,AR,phi2_server_grammar,1,ok,1.6639,1.6573,276,408,0,runs_server/20251221_180858/logs/AR91__phi2_server_grammar__t1.json
AR92,AR,phi2_server_nogrammar,1,ok,7.2703,7.2554,267,255,0,runs_server/20251221_180858/logs/AR92__phi2_server_nogrammar__t1.json
AR92,AR,phi2_server_grammar,1,ok,1.6603,1.6526,267,255,0,runs_server/20251221_180858/logs/AR92__phi2_server_grammar__t1.json
AR93,AR,phi2_server_nogrammar,1,ok,6.3019,6.2817,24,24,1,runs_server/20251221_180858/logs/AR93__phi2_server_nogrammar__t1.json
AR93,AR,phi2_server_grammar,1,ok,1.6430,1.6354,24,24,1,runs_server/20251221_180858/logs/AR93__phi2_server_grammar__t1.json
AR94,AR,phi2_server_nogrammar,1,ok,7.0238,7.0054,1060,1060,1,runs_server/20251221_180858/logs/AR94__phi2_server_nogrammar__t1.json
AR94,AR,phi2_server_grammar,1,ok,2.3551,2.3474,1060,1060,1,runs_server/20251221_180858/logs/AR94__phi2_server_grammar__t1.json
AR95,AR,phi2_server_nogrammar,1,ok,9.5815,9.5627,632,752,0,runs_server/20251221_180858/logs/AR95__phi2_server_nogrammar__t1.json
AR95,AR,phi2_server_grammar,1,ok,2.2664,2.2597,632,752,0,runs_server/20251221_180858/logs/AR95__phi2_server_grammar__t1.json
AR96,AR,phi2_server_nogrammar,1,ok,6.4464,6.4064,169,169,1,runs_server/20251221_180858/logs/AR96__phi2_server_nogrammar__t1.json
AR96,AR,phi2_server_grammar,1,ok,1.6835,1.6758,169,169,1,runs_server/20251221_180858/logs/AR96__phi2_server_grammar__t1.json
AR97,AR,phi2_server_nogrammar,1,ok,8.1314,8.1081,136,136,1,runs_server/20251221_180858/logs/AR97__phi2_server_nogrammar__t1.json
AR97,AR,phi2_server_grammar,1,ok,1.6237,1.6185,136,136,1,runs_server/20251221_180858/logs/AR97__phi2_server_grammar__t1.json
AR98,AR,phi2_server_nogrammar,1,ok,8.5350,8.5143,866,933,0,runs_server/20251221_180858/logs/AR98__phi2_server_nogrammar__t1.json
AR98,AR,phi2_server_grammar,1,ok,2.3212,2.3160,866,933,0,runs_server/20251221_180858/logs/AR98__phi2_server_grammar__t1.json
AR99,AR,phi2_server_nogrammar,1,ok,8.0975,8.0746,108,756,0,runs_server/20251221_180858/logs/AR99__phi2_server_nogrammar__t1.json
AR99,AR,phi2_server_grammar,1,ok,2.1819,2.1768,108,756,0,runs_server/20251221_180858/logs/AR99__phi2_server_grammar__t1.json
AR100,AR,phi2_server_nogrammar,1,ok,6.9249,6.8976,44,44,1,runs_server/20251221_180858/logs/AR100__phi2_server_nogrammar__t1.json
AR100,AR,phi2_server_grammar,1,ok,1.6775,1.6681,44,44,1,runs_server/20251221_180858/logs/AR100__phi2_server_grammar__t1.json
ALG11,ALG,phi2_server_nogrammar,1,ok,7.8689,7.8362,9,9,1,runs_server/20251221_180858/logs/ALG11__phi2_server_nogrammar__t1.json
ALG11,ALG,phi2_server_grammar,1,ok,2.8225,2.8155,9,9,1,runs_server/20251221_180858/logs/ALG11__phi2_server_grammar__t1.json
ALG12,ALG,phi2_server_nogrammar,1,ok,10.5159,10.4927,-18,-18,1,runs_server/20251221_180858/logs/ALG12__phi2_server_nogrammar__t1.json
ALG12,ALG,phi2_server_grammar,1,ok,3.4123,3.4054,-18,-18,1,runs_server/20251221_180858/logs/ALG12__phi2_server_grammar__t1.json
ALG13,ALG,phi2_server_nogrammar,1,ok,8.8011,8.7537,10,10,1,runs_server/20251221_180858/logs/ALG13__phi2_server_nogrammar__t1.json
ALG13,ALG,phi2_server_grammar,1,ok,2.7792,2.7725,10,10,1,runs_server/20251221_180858/logs/ALG13__phi2_server_grammar__t1.json
ALG14,ALG,phi2_server_nogrammar,1,ok,8.0035,7.9534,30,30,1,runs_server/20251221_180858/logs/ALG14__phi2_server_nogrammar__t1.json
ALG14,ALG,phi2_server_grammar,1,ok,2.8631,2.8582,30,30,1,runs_server/20251221_180858/logs/ALG14__phi2_server_grammar__t1.json
ALG15,ALG,phi2_server_nogrammar,1,ok,9.6141,9.5863,9,9,1,runs_server/20251221_180858/logs/ALG15__phi2_server_nogrammar__t1.json
ALG15,ALG,phi2_server_grammar,1,ok,2.8782,2.8715,9,9,1,runs_server/20251221_180858/logs/ALG15__phi2_server_grammar__t1.json
ALG16,ALG,phi2_server_nogrammar,1,ok,8.9222,8.8882,-4,-4,1,runs_server/20251221_180858/logs/ALG16__phi2_server_nogrammar__t1.json
ALG16,ALG,phi2_server_grammar,1,ok,3.5065,3.5016,-4,-4,1,runs_server/20251221_180858/logs/ALG16__phi2_server_grammar__t1.json
ALG17,ALG,phi2_server_nogrammar,1,ok,10.0099,9.9797,-8,-3,0,runs_server/20251221_180858/logs/ALG17__phi2_server_nogrammar__t1.json
ALG17,ALG,phi2_server_grammar,1,ok,3.3567,3.3516,-8,-3,0,runs_server/20251221_180858/logs/ALG17__phi2_server_grammar__t1.json
ALG18,ALG,phi2_server_nogrammar,1,ok,8.4717,8.4059,13,36,0,runs_server/20251221_180858/logs/ALG18__phi2_server_nogrammar__t1.json
ALG18,ALG,phi2_server_grammar,1,ok,2.8309,2.8261,13,36,0,runs_server/20251221_180858/logs/ALG18__phi2_server_grammar__t1.json
ALG19,ALG,phi2_server_nogrammar,1,ok,7.5606,7.5407,180,180,1,runs_server/20251221_180858/logs/ALG19__phi2_server_nogrammar__t1.json
ALG19,ALG,phi2_server_grammar,1,ok,2.8745,2.8689,180,180,1,runs_server/20251221_180858/logs/ALG19__phi2_server_grammar__t1.json
ALG20,ALG,phi2_server_nogrammar,1,ok,6.8017,6.7780,10,10,1,runs_server/20251221_180858/logs/ALG20__phi2_server_nogrammar__t1.json
ALG20,ALG,phi2_server_grammar,1,ok,2.7978,2.7902,10,10,1,runs_server/20251221_180858/logs/ALG20__phi2_server_grammar__t1.json
ALG21,ALG,phi2_server_nogrammar,1,ok,9.6227,9.5908,-16,-18,0,runs_server/20251221_180858/logs/ALG21__phi2_server_nogrammar__t1.json
ALG21,ALG,phi2_server_grammar,1,ok,3.4689,3.4634,-16,-18,0,runs_server/20251221_180858/logs/ALG21__phi2_server_grammar__t1.json
ALG22,ALG,phi2_server_nogrammar,1,ok,10.5461,10.5103,-18,-18,1,runs_server/20251221_180858/logs/ALG22__phi2_server_nogrammar__t1.json
ALG22,ALG,phi2_server_grammar,1,ok,3.3965,3.3912,-18,-18,1,runs_server/20251221_180858/logs/ALG22__phi2_server_grammar__t1.json
ALG23,ALG,phi2_server_nogrammar,1,ok,9.9011,9.8685,2,-6,0,runs_server/20251221_180858/logs/ALG23__phi2_server_nogrammar__t1.json
ALG23,ALG,phi2_server_grammar,1,ok,3.4099,3.4033,2,-6,0,runs_server/20251221_180858/logs/ALG23__phi2_server_grammar__t1.json
ALG24,ALG,phi2_server_nogrammar,1,ok,7.7999,7.7485,32,32,1,runs_server/20251221_180858/logs/ALG24__phi2_server_nogrammar__t1.json
ALG24,ALG,phi2_server_grammar,1,ok,2.7645,2.7597,32,32,1,runs_server/20251221_180858/logs/ALG24__phi2_server_grammar__t1.json
ALG25,ALG,phi2_server_nogrammar,1,ok,8.0024,7.9797,-12,-6,0,runs_server/20251221_180858/logs/ALG25__phi2_server_nogrammar__t1.json
ALG25,ALG,phi2_server_grammar,1,ok,3.4065,3.4017,-12,-6,0,runs_server/20251221_180858/logs/ALG25__phi2_server_grammar__t1.json
ALG26,ALG,phi2_server_nogrammar,1,ok,9.3790,9.3634,20,20,1,runs_server/20251221_180858/logs/ALG26__phi2_server_nogrammar__t1.json
ALG26,ALG,phi2_server_grammar,1,ok,2.8012,2.7964,20,20,1,runs_server/20251221_180858/logs/ALG26__phi2_server_grammar__t1.json
ALG27,ALG,phi2_server_nogrammar,1,ok,10.1858,10.1641,-19,-22,0,runs_server/20251221_180858/logs/ALG27__phi2_server_nogrammar__t1.json
ALG27,ALG,phi2_server_grammar,1,ok,3.3920,3.3853,-19,-22,0,runs_server/20251221_180858/logs/ALG27__phi2_server_grammar__t1.json
ALG28,ALG,phi2_server_nogrammar,1,ok,8.7280,8.6873,1,24,0,runs_server/20251221_180858/logs/ALG28__phi2_server_nogrammar__t1.json
ALG28,ALG,phi2_server_grammar,1,ok,2.6878,2.6803,1,24,0,runs_server/20251221_180858/logs/ALG28__phi2_server_grammar__t1.json
ALG29,ALG,phi2_server_nogrammar,1,ok,7.9682,7.9393,33,33,1,runs_server/20251221_180858/logs/ALG29__phi2_server_nogrammar__t1.json
ALG29,ALG,phi2_server_grammar,1,ok,2.8301,2.8252,33,33,1,runs_server/20251221_180858/logs/ALG29__phi2_server_grammar__t1.json
ALG30,ALG,phi2_server_nogrammar,1,ok,7.0051,6.9726,15,10,0,runs_server/20251221_180858/logs/ALG30__phi2_server_nogrammar__t1.json
ALG30,ALG,phi2_server_grammar,1,ok,2.9153,2.9103,15,10,0,runs_server/20251221_180858/logs/ALG30__phi2_server_grammar__t1.json
ALG31,ALG,phi2_server_nogrammar,1,ok,8.8118,8.7937,9,9,1,runs_server/20251221_180858/logs/ALG31__phi2_server_nogrammar__t1.json
ALG31,ALG,phi2_server_grammar,1,ok,2.8229,2.8145,9,9,1,runs_server/20251221_180858/logs/ALG31__phi2_server_grammar__t1.json
ALG32,ALG,phi2_server_nogrammar,1,ok,10.1807,10.1397,9,6,0,runs_server/20251221_180858/logs/ALG32__phi2_server_nogrammar__t1.json
ALG32,ALG,phi2_server_grammar,1,ok,2.9220,2.9166,9,6,0,runs_server/20251221_180858/logs/ALG32__phi2_server_grammar__t1.json
ALG33,ALG,phi2_server_nogrammar,1,ok,9.8558,9.8203,-14,-6,0,runs_server/20251221_180858/logs/ALG33__phi2_server_nogrammar__t1.json
ALG33,ALG,phi2_server_grammar,1,ok,3.3603,3.3554,-14,-6,0,runs_server/20251221_180858/logs/ALG33__phi2_server_grammar__t1.json
ALG34,ALG,phi2_server_nogrammar,1,ok,8.6523,8.6227,-35,-35,1,runs_server/20251221_180858/logs/ALG34__phi2_server_nogrammar__t1.json
ALG34,ALG,phi2_server_grammar,1,ok,3.4261,3.4214,-35,-35,1,runs_server/20251221_180858/logs/ALG34__phi2_server_grammar__t1.json
ALG35,ALG,phi2_server_nogrammar,1,ok,7.9013,7.8791,-3,-2,0,runs_server/20251221_180858/logs/ALG35__phi2_server_nogrammar__t1.json
ALG35,ALG,phi2_server_grammar,1,ok,3.4308,3.4233,-3,-2,0,runs_server/20251221_180858/logs/ALG35__phi2_server_grammar__t1.json
ALG36,ALG,phi2_server_nogrammar,1,ok,7.7633,7.7420,13,13,1,runs_server/20251221_180858/logs/ALG36__phi2_server_nogrammar__t1.json
ALG36,ALG,phi2_server_grammar,1,ok,2.8005,2.7957,13,13,1,runs_server/20251221_180858/logs/ALG36__phi2_server_grammar__t1.json
ALG37,ALG,phi2_server_nogrammar,1,ok,7.7918,7.7678,14,14,1,runs_server/20251221_180858/logs/ALG37__phi2_server_nogrammar__t1.json
ALG37,ALG,phi2_server_grammar,1,ok,2.9019,2.8947,14,14,1,runs_server/20251221_180858/logs/ALG37__phi2_server_grammar__t1.json
ALG38,ALG,phi2_server_nogrammar,1,ok,9.5279,9.4765,-11,-11,1,runs_server/20251221_180858/logs/ALG38__phi2_server_nogrammar__t1.json
ALG38,ALG,phi2_server_grammar,1,ok,3.3930,3.3872,-11,-11,1,runs_server/20251221_180858/logs/ALG38__phi2_server_grammar__t1.json
ALG39,ALG,phi2_server_nogrammar,1,ok,8.5567,8.5313,-6,-6,1,runs_server/20251221_180858/logs/ALG39__phi2_server_nogrammar__t1.json
ALG39,ALG,phi2_server_grammar,1,ok,3.3143,3.3094,-6,-6,1,runs_server/20251221_180858/logs/ALG39__phi2_server_grammar__t1.json
ALG40,ALG,phi2_server_nogrammar,1,ok,7.0357,7.0133,9,9,1,runs_server/20251221_180858/logs/ALG40__phi2_server_nogrammar__t1.json
ALG40,ALG,phi2_server_grammar,1,ok,2.8143,2.8077,9,9,1,runs_server/20251221_180858/logs/ALG40__phi2_server_grammar__t1.json
ALG41,ALG,phi2_server_nogrammar,1,ok,9.7746,9.7402,-9,-12,0,runs_server/20251221_180858/logs/ALG41__phi2_server_nogrammar__t1.json
ALG41,ALG,phi2_server_grammar,1,ok,3.4307,3.4242,-9,-12,0,runs_server/20251221_180858/logs/ALG41__phi2_server_grammar__t1.json
ALG42,ALG,phi2_server_nogrammar,1,ok,8.9157,8.8933,-19,-6,0,runs_server/20251221_180858/logs/ALG42__phi2_server_nogrammar__t1.json
ALG42,ALG,phi2_server_grammar,1,ok,3.3674,3.3608,-19,-6,0,runs_server/20251221_180858/logs/ALG42__phi2_server_grammar__t1.json
ALG43,ALG,phi2_server_nogrammar,1,ok,9.0034,8.9798,-8,12,0,runs_server/20251221_180858/logs/ALG43__phi2_server_nogrammar__t1.json
ALG43,ALG,phi2_server_grammar,1,ok,2.8447,2.8399,-8,12,0,runs_server/20251221_180858/logs/ALG43__phi2_server_grammar__t1.json
ALG44,ALG,phi2_server_nogrammar,1,ok,8.6567,8.6338,-91,-91,1,runs_server/20251221_180858/logs/ALG44__phi2_server_nogrammar__t1.json
ALG44,ALG,phi2_server_grammar,1,ok,3.3960,3.3867,-91,-91,1,runs_server/20251221_180858/logs/ALG44__phi2_server_grammar__t1.json
ALG45,ALG,phi2_server_nogrammar,1,ok,7.9057,7.8814,-16,-6,0,runs_server/20251221_180858/logs/ALG45__phi2_server_nogrammar__t1.json
ALG45,ALG,phi2_server_grammar,1,ok,3.4021,3.3940,-16,-6,0,runs_server/20251221_180858/logs/ALG45__phi2_server_grammar__t1.json
ALG46,ALG,phi2_server_nogrammar,1,ok,7.7794,7.7580,4,4,1,runs_server/20251221_180858/logs/ALG46__phi2_server_nogrammar__t1.json
ALG46,ALG,phi2_server_grammar,1,ok,2.9172,2.9095,4,4,1,runs_server/20251221_180858/logs/ALG46__phi2_server_grammar__t1.json
ALG47,ALG,phi2_server_nogrammar,1,ok,11.0200,11.0055,-6,-7,0,runs_server/20251221_180858/logs/ALG47__phi2_server_nogrammar__t1.json
ALG47,ALG,phi2_server_grammar,1,ok,3.4401,3.4329,-6,-7,0,runs_server/20251221_180858/logs/ALG47__phi2_server_grammar__t1.json
ALG48,ALG,phi2_server_nogrammar,1,ok,9.0030,8.9402,4,12,0,runs_server/20251221_180858/logs/ALG48__phi2_server_nogrammar__t1.json
ALG48,ALG,phi2_server_grammar,1,ok,2.9031,2.8954,4,12,0,runs_server/20251221_180858/logs/ALG48__phi2_server_grammar__t1.json
ALG49,ALG,phi2_server_nogrammar,1,ok,8.7345,8.7136,-128,-128,1,runs_server/20251221_180858/logs/ALG49__phi2_server_nogrammar__t1.json
ALG49,ALG,phi2_server_grammar,1,ok,3.5382,3.5315,-128,-128,1,runs_server/20251221_180858/logs/ALG49__phi2_server_grammar__t1.json
ALG50,ALG,phi2_server_nogrammar,1,ok,7.4911,7.4578,-20,-10,0,runs_server/20251221_180858/logs/ALG50__phi2_server_nogrammar__t1.json
ALG50,ALG,phi2_server_grammar,1,ok,3.3372,3.3318,-20,-10,0,runs_server/20251221_180858/logs/ALG50__phi2_server_grammar__t1.json
ALG51,ALG,phi2_server_nogrammar,1,ok,7.6810,7.6588,15,15,1,runs_server/20251221_180858/logs/ALG51__phi2_server_nogrammar__t1.json
ALG51,ALG,phi2_server_grammar,1,ok,2.8398,2.8349,15,15,1,runs_server/20251221_180858/logs/ALG51__phi2_server_grammar__t1.json
ALG52,ALG,phi2_server_nogrammar,1,ok,8.9594,8.9372,-7,-7,1,runs_server/20251221_180858/logs/ALG52__phi2_server_nogrammar__t1.json
ALG52,ALG,phi2_server_grammar,1,ok,3.3667,3.3597,-7,-7,1,runs_server/20251221_180858/logs/ALG52__phi2_server_grammar__t1.json
ALG53,ALG,phi2_server_nogrammar,1,ok,9.5126,9.4781,-26,-28,0,runs_server/20251221_180858/logs/ALG53__phi2_server_nogrammar__t1.json
ALG53,ALG,phi2_server_grammar,1,ok,3.4971,3.4890,-26,-28,0,runs_server/20251221_180858/logs/ALG53__phi2_server_grammar__t1.json
ALG54,ALG,phi2_server_nogrammar,1,ok,8.8662,8.8433,-44,-44,1,runs_server/20251221_180858/logs/ALG54__phi2_server_nogrammar__t1.json
ALG54,ALG,phi2_server_grammar,1,ok,3.4278,3.4198,-44,-44,1,runs_server/20251221_180858/logs/ALG54__phi2_server_grammar__t1.json
ALG55,ALG,phi2_server_nogrammar,1,ok,7.0409,7.0183,8,8,1,runs_server/20251221_180858/logs/ALG55__phi2_server_nogrammar__t1.json
ALG55,ALG,phi2_server_grammar,1,ok,2.8778,2.8719,8,8,1,runs_server/20251221_180858/logs/ALG55__phi2_server_grammar__t1.json
ALG56,ALG,phi2_server_nogrammar,1,ok,9.6280,9.6008,-15,-16,0,runs_server/20251221_180858/logs/ALG56__phi2_server_nogrammar__t1.json
ALG56,ALG,phi2_server_grammar,1,ok,3.4316,3.4235,-15,-16,0,runs_server/20251221_180858/logs/ALG56__phi2_server_grammar__t1.json
ALG57,ALG,phi2_server_nogrammar,1,ok,9.3263,9.3044,13,5,0,runs_server/20251221_180858/logs/ALG57__phi2_server_nogrammar__t1.json
ALG57,ALG,phi2_server_grammar,1,ok,2.8062,2.7981,13,5,0,runs_server/20251221_180858/logs/ALG57__phi2_server_grammar__t1.json
ALG58,ALG,phi2_server_nogrammar,1,ok,9.9910,9.9683,9,-19,0,runs_server/20251221_180858/logs/ALG58__phi2_server_nogrammar__t1.json
ALG58,ALG,phi2_server_grammar,1,ok,3.3887,3.3818,9,-19,0,runs_server/20251221_180858/logs/ALG58__phi2_server_grammar__t1.json
ALG59,ALG,phi2_server_nogrammar,1,ok,7.6956,7.6720,132,132,1,runs_server/20251221_180858/logs/ALG59__phi2_server_nogrammar__t1.json
ALG59,ALG,phi2_server_grammar,1,ok,2.8398,2.8347,132,132,1,runs_server/20251221_180858/logs/ALG59__phi2_server_grammar__t1.json
ALG60,ALG,phi2_server_nogrammar,1,ok,7.8707,7.8489,-13,-6,0,runs_server/20251221_180858/logs/ALG60__phi2_server_nogrammar__t1.json
ALG60,ALG,phi2_server_grammar,1,ok,3.4021,3.3946,-13,-6,0,runs_server/20251221_180858/logs/ALG60__phi2_server_grammar__t1.json
ALG61,ALG,phi2_server_nogrammar,1,ok,8.0631,8.0093,18,18,1,runs_server/20251221_180858/logs/ALG61__phi2_server_nogrammar__t1.json
ALG61,ALG,phi2_server_grammar,1,ok,2.8039,2.7962,18,18,1,runs_server/20251221_180858/logs/ALG61__phi2_server_grammar__t1.json
ALG62,ALG,phi2_server_nogrammar,1,ok,9.6415,9.6267,11,11,1,runs_server/20251221_180858/logs/ALG62__phi2_server_nogrammar__t1.json
ALG62,ALG,phi2_server_grammar,1,ok,2.8786,2.8716,11,11,1,runs_server/20251221_180858/logs/ALG62__phi2_server_grammar__t1.json
ALG63,ALG,phi2_server_nogrammar,1,ok,8.5727,8.5213,9,72,0,runs_server/20251221_180858/logs/ALG63__phi2_server_nogrammar__t1.json
ALG63,ALG,phi2_server_grammar,1,ok,2.8788,2.8731,9,72,0,runs_server/20251221_180858/logs/ALG63__phi2_server_grammar__t1.json
ALG64,ALG,phi2_server_nogrammar,1,ok,7.9316,7.8967,60,60,1,runs_server/20251221_180858/logs/ALG64__phi2_server_nogrammar__t1.json
ALG64,ALG,phi2_server_grammar,1,ok,2.9562,2.9493,60,60,1,runs_server/20251221_180858/logs/ALG64__phi2_server_grammar__t1.json
ALG65,ALG,phi2_server_nogrammar,1,ok,6.7845,6.7467,10,10,1,runs_server/20251221_180858/logs/ALG65__phi2_server_nogrammar__t1.json
ALG65,ALG,phi2_server_grammar,1,ok,2.8542,2.8474,10,10,1,runs_server/20251221_180858/logs/ALG65__phi2_server_grammar__t1.json
ALG66,ALG,phi2_server_nogrammar,1,ok,8.6311,8.5829,-6,-6,1,runs_server/20251221_180858/logs/ALG66__phi2_server_nogrammar__t1.json
ALG66,ALG,phi2_server_grammar,1,ok,3.4323,3.4256,-6,-6,1,runs_server/20251221_180858/logs/ALG66__phi2_server_grammar__t1.json
ALG67,ALG,phi2_server_nogrammar,1,ok,7.8641,7.8419,9,6,0,runs_server/20251221_180858/logs/ALG67__phi2_server_nogrammar__t1.json
ALG67,ALG,phi2_server_grammar,1,ok,2.8877,2.8801,9,6,0,runs_server/20251221_180858/logs/ALG67__phi2_server_grammar__t1.json
ALG68,ALG,phi2_server_nogrammar,1,ok,9.3059,9.2792,8,-14,0,runs_server/20251221_180858/logs/ALG68__phi2_server_nogrammar__t1.json
ALG68,ALG,phi2_server_grammar,1,ok,3.2941,3.2846,8,-14,0,runs_server/20251221_180858/logs/ALG68__phi2_server_grammar__t1.json
ALG69,ALG,phi2_server_nogrammar,1,ok,8.6542,8.6216,-156,-156,1,runs_server/20251221_180858/logs/ALG69__phi2_server_nogrammar__t1.json
ALG69,ALG,phi2_server_grammar,1,ok,3.4010,3.3944,-156,-156,1,runs_server/20251221_180858/logs/ALG69__phi2_server_grammar__t1.json
ALG70,ALG,phi2_server_nogrammar,1,ok,7.8680,7.8352,-16,-6,0,runs_server/20251221_180858/logs/ALG70__phi2_server_nogrammar__t1.json
ALG70,ALG,phi2_server_grammar,1,ok,3.4227,3.4158,-16,-6,0,runs_server/20251221_180858/logs/ALG70__phi2_server_grammar__t1.json
ALG71,ALG,phi2_server_nogrammar,1,ok,7.6717,7.6405,20,20,1,runs_server/20251221_180858/logs/ALG71__phi2_server_nogrammar__t1.json
ALG71,ALG,phi2_server_grammar,1,ok,2.8056,2.8007,20,20,1,runs_server/20251221_180858/logs/ALG71__phi2_server_grammar__t1.json
ALG72,ALG,phi2_server_nogrammar,1,ok,8.2189,8.1972,-1,0,0,runs_server/20251221_180858/logs/ALG72__phi2_server_nogrammar__t1.json
ALG72,ALG,phi2_server_grammar,1,ok,2.8716,2.8668,-1,0,0,runs_server/20251221_180858/logs/ALG72__phi2_server_grammar__t1.json
ALG73,ALG,phi2_server_nogrammar,1,ok,9.4790,9.4543,-23,-19,0,runs_server/20251221_180858/logs/ALG73__phi2_server_nogrammar__t1.json
ALG73,ALG,phi2_server_grammar,1,ok,3.5330,3.5234,-23,-19,0,runs_server/20251221_180858/logs/ALG73__phi2_server_grammar__t1.json
ALG74,ALG,phi2_server_nogrammar,1,ok,8.5732,8.5511,-108,-108,1,runs_server/20251221_180858/logs/ALG74__phi2_server_nogrammar__t1.json
ALG74,ALG,phi2_server_grammar,1,ok,3.3739,3.3673,-108,-108,1,runs_server/20251221_180858/logs/ALG74__phi2_server_grammar__t1.json
ALG75,ALG,phi2_server_nogrammar,1,ok,7.3037,7.2684,-6,-2,0,runs_server/20251221_180858/logs/ALG75__phi2_server_nogrammar__t1.json
ALG75,ALG,phi2_server_grammar,1,ok,3.4557,3.4464,-6,-2,0,runs_server/20251221_180858/logs/ALG75__phi2_server_grammar__t1.json
ALG76,ALG,phi2_server_nogrammar,1,ok,8.5520,8.5208,-19,-21,0,runs_server/20251221_180858/logs/ALG76__phi2_server_nogrammar__t1.json
ALG76,ALG,phi2_server_grammar,1,ok,3.5377,3.5315,-19,-21,0,runs_server/20251221_180858/logs/ALG76__phi2_server_grammar__t1.json
ALG77,ALG,phi2_server_nogrammar,1,ok,10.5717,10.5546,-11,-10,0,runs_server/20251221_180858/logs/ALG77__phi2_server_nogrammar__t1.json
ALG77,ALG,phi2_server_grammar,1,ok,3.4863,3.4786,-11,-10,0,runs_server/20251221_180858/logs/ALG77__phi2_server_grammar__t1.json
ALG78,ALG,phi2_server_nogrammar,1,ok,9.5640,9.5306,-18,-66,0,runs_server/20251221_180858/logs/ALG78__phi2_server_nogrammar__t1.json
ALG78,ALG,phi2_server_grammar,1,ok,3.4006,3.3956,-18,-66,0,runs_server/20251221_180858/logs/ALG78__phi2_server_grammar__t1.json
ALG79,ALG,phi2_server_nogrammar,1,ok,8.7249,8.7009,-90,-90,1,runs_server/20251221_180858/logs/ALG79__phi2_server_nogrammar__t1.json
ALG79,ALG,phi2_server_grammar,1,ok,3.4379,3.4294,-90,-90,1,runs_server/20251221_180858/logs/ALG79__phi2_server_grammar__t1.json
ALG80,ALG,phi2_server_nogrammar,1,ok,7.0014,6.9768,10,10,1,runs_server/20251221_180858/logs/ALG80__phi2_server_nogrammar__t1.json
ALG80,ALG,phi2_server_grammar,1,ok,2.8743,2.8667,10,10,1,runs_server/20251221_180858/logs/ALG80__phi2_server_grammar__t1.json
ALG81,ALG,phi2_server_nogrammar,1,ok,8.9416,8.9188,-18,-20,0,runs_server/20251221_180858/logs/ALG81__phi2_server_nogrammar__t1.json
ALG81,ALG,phi2_server_grammar,1,ok,3.3930,3.3871,-18,-20,0,runs_server/20251221_180858/logs/ALG81__phi2_server_grammar__t1.json
ALG82,ALG,phi2_server_nogrammar,1,ok,8.6174,8.5875,-9,-2,0,runs_server/20251221_180858/logs/ALG82__phi2_server_nogrammar__t1.json
ALG82,ALG,phi2_server_grammar,1,ok,3.3883,3.3802,-9,-2,0,runs_server/20251221_180858/logs/ALG82__phi2_server_grammar__t1.json
ALG83,ALG,phi2_server_nogrammar,1,ok,9.4112,9.3595,-9,-11,0,runs_server/20251221_180858/logs/ALG83__phi2_server_nogrammar__t1.json
ALG83,ALG,phi2_server_grammar,1,ok,3.4537,3.4469,-9,-11,0,runs_server/20251221_180858/logs/ALG83__phi2_server_grammar__t1.json
ALG84,ALG,phi2_server_nogrammar,1,ok,7.5527,7.5228,132,132,1,runs_server/20251221_180858/logs/ALG84__phi2_server_nogrammar__t1.json
ALG84,ALG,phi2_server_grammar,1,ok,2.8411,2.8361,132,132,1,runs_server/20251221_180858/logs/ALG84__phi2_server_grammar__t1.json
ALG85,ALG,phi2_server_nogrammar,1,ok,6.8668,6.8431,19,17,0,runs_server/20251221_180858/logs/ALG85__phi2_server_nogrammar__t1.json
ALG85,ALG,phi2_server_grammar,1,ok,2.9597,2.9510,19,17,0,runs_server/20251221_180858/logs/ALG85__phi2_server_grammar__t1.json
ALG86,ALG,phi2_server_nogrammar,1,ok,8.3930,8.3703,2,2,1,runs_server/20251221_180858/logs/ALG86__phi2_server_nogrammar__t1.json
ALG86,ALG,phi2_server_grammar,1,ok,2.8225,2.8148,2,2,1,runs_server/20251221_180858/logs/ALG86__phi2_server_grammar__t1.json
ALG87,ALG,phi2_server_nogrammar,1,ok,9.2801,9.2559,11,11,1,runs_server/20251221_180858/logs/ALG87__phi2_server_nogrammar__t1.json
ALG87,ALG,phi2_server_grammar,1,ok,2.8888,2.8821,11,11,1,runs_server/20251221_180858/logs/ALG87__phi2_server_grammar__t1.json
ALG88,ALG,phi2_server_nogrammar,1,ok,9.4965,9.4629,-19,-3,0,runs_server/20251221_180858/logs/ALG88__phi2_server_nogrammar__t1.json
ALG88,ALG,phi2_server_grammar,1,ok,3.3642,3.3593,-19,-3,0,runs_server/20251221_180858/logs/ALG88__phi2_server_grammar__t1.json
ALG89,ALG,phi2_server_nogrammar,1,ok,8.5603,8.5337,-126,-126,1,runs_server/20251221_180858/logs/ALG89__phi2_server_nogrammar__t1.json
ALG89,ALG,phi2_server_grammar,1,ok,3.4014,3.3963,-126,-126,1,runs_server/20251221_180858/logs/ALG89__phi2_server_grammar__t1.json
ALG90,ALG,phi2_server_nogrammar,1,ok,6.9567,6.9351,4,6,0,runs_server/20251221_180858/logs/ALG90__phi2_server_nogrammar__t1.json
ALG90,ALG,phi2_server_grammar,1,ok,2.7711,2.7663,4,6,0,runs_server/20251221_180858/logs/ALG90__phi2_server_grammar__t1.json
ALG91,ALG,phi2_server_nogrammar,1,ok,8.9782,8.9457,-5,-5,1,runs_server/20251221_180858/logs/ALG91__phi2_server_nogrammar__t1.json
ALG91,ALG,phi2_server_grammar,1,ok,3.2857,3.2807,-5,-5,1,runs_server/20251221_180858/logs/ALG91__phi2_server_grammar__t1.json
ALG92,ALG,phi2_server_nogrammar,1,ok,7.9683,7.9440,17,16,0,runs_server/20251221_180858/logs/ALG92__phi2_server_nogrammar__t1.json
ALG92,ALG,phi2_server_grammar,1,ok,2.8764,2.8689,17,16,0,runs_server/20251221_180858/logs/ALG92__phi2_server_grammar__t1.json
ALG93,ALG,phi2_server_nogrammar,1,ok,8.9726,8.9402,4,-8,0,runs_server/20251221_180858/logs/ALG93__phi2_server_nogrammar__t1.json
ALG93,ALG,phi2_server_grammar,1,ok,3.3766,3.3690,4,-8,0,runs_server/20251221_180858/logs/ALG93__phi2_server_grammar__t1.json
ALG94,ALG,phi2_server_nogrammar,1,ok,7.8013,7.7775,135,135,1,runs_server/20251221_180858/logs/ALG94__phi2_server_nogrammar__t1.json
ALG94,ALG,phi2_server_grammar,1,ok,2.7680,2.7630,135,135,1,runs_server/20251221_180858/logs/ALG94__phi2_server_grammar__t1.json
ALG95,ALG,phi2_server_nogrammar,1,ok,7.7410,7.7178,-18,-6,0,runs_server/20251221_180858/logs/ALG95__phi2_server_nogrammar__t1.json
ALG95,ALG,phi2_server_grammar,1,ok,3.4556,3.4480,-18,-6,0,runs_server/20251221_180858/logs/ALG95__phi2_server_grammar__t1.json
ALG96,ALG,phi2_server_nogrammar,1,ok,8.8891,8.8657,18,18,1,runs_server/20251221_180858/logs/ALG96__phi2_server_nogrammar__t1.json
ALG96,ALG,phi2_server_grammar,1,ok,2.8177,2.8102,18,18,1,runs_server/20251221_180858/logs/ALG96__phi2_server_grammar__t1.json
ALG97,ALG,phi2_server_nogrammar,1,ok,10.1732,10.1590,-4,-4,1,runs_server/20251221_180858/logs/ALG97__phi2_server_nogrammar__t1.json
ALG97,ALG,phi2_server_grammar,1,ok,3.3881,3.3832,-4,-4,1,runs_server/20251221_180858/logs/ALG97__phi2_server_grammar__t1.json
ALG98,ALG,phi2_server_nogrammar,1,ok,9.5211,9.4994,-16,-20,0,runs_server/20251221_180858/logs/ALG98__phi2_server_nogrammar__t1.json
ALG98,ALG,phi2_server_grammar,1,ok,3.3171,3.3122,-16,-20,0,runs_server/20251221_180858/logs/ALG98__phi2_server_grammar__t1.json
ALG99,ALG,phi2_server_nogrammar,1,ok,6.7998,6.7775,0,0,1,runs_server/20251221_180858/logs/ALG99__phi2_server_nogrammar__t1.json
ALG99,ALG,phi2_server_grammar,1,ok,2.9076,2.9000,0,0,1,runs_server/20251221_180858/logs/ALG99__phi2_server_grammar__t1.json
ALG100,ALG,phi2_server_nogrammar,1,ok,7.3650,7.3432,-10,-5,0,runs_server/20251221_180858/logs/ALG100__phi2_server_nogrammar__t1.json
ALG100,ALG,phi2_server_grammar,1,ok,3.4305,3.4229,-10,-5,0,runs_server/20251221_180858/logs/ALG100__phi2_server_grammar__t1.json
LOG11,LOG,phi2_server_nogrammar,1,ok,15.8464,15.8311,Yes,Yes,1,runs_server/20251221_180858/logs/LOG11__phi2_server_nogrammar__t1.json
LOG11,LOG,phi2_server_grammar,1,ok,1.8122,1.8069,Yes,Yes,1,runs_server/20251221_180858/logs/LOG11__phi2_server_grammar__t1.json
LOG12,LOG,phi2_server_nogrammar,1,ok,14.6933,14.6541,No,Yes,0,runs_server/20251221_180858/logs/LOG12__phi2_server_nogrammar__t1.json
LOG12,LOG,phi2_server_grammar,1,ok,1.7132,1.7077,No,Yes,0,runs_server/20251221_180858/logs/LOG12__phi2_server_grammar__t1.json
LOG13,LOG,phi2_server_nogrammar,1,ok,18.8217,18.7942,Yes,Yes,1,runs_server/20251221_180858/logs/LOG13__phi2_server_nogrammar__t1.json
LOG13,LOG,phi2_server_grammar,1,ok,1.7093,1.7042,Yes,Yes,1,runs_server/20251221_180858/logs/LOG13__phi2_server_grammar__t1.json
LOG14,LOG,phi2_server_nogrammar,1,ok,16.9539,16.9215,No,Yes,0,runs_server/20251221_180858/logs/LOG14__phi2_server_nogrammar__t1.json
LOG14,LOG,phi2_server_grammar,1,ok,1.7108,1.7055,No,Yes,0,runs_server/20251221_180858/logs/LOG14__phi2_server_grammar__t1.json
LOG15,LOG,phi2_server_nogrammar,1,ok,10.6130,10.5790,Yes,Yes,1,runs_server/20251221_180858/logs/LOG15__phi2_server_nogrammar__t1.json
LOG15,LOG,phi2_server_grammar,1,ok,1.7077,1.7016,Yes,Yes,1,runs_server/20251221_180858/logs/LOG15__phi2_server_grammar__t1.json
LOG16,LOG,phi2_server_nogrammar,1,ok,10.6271,10.6054,No,No,1,runs_server/20251221_180858/logs/LOG16__phi2_server_nogrammar__t1.json
LOG16,LOG,phi2_server_grammar,1,ok,1.7292,1.7214,No,No,1,runs_server/20251221_180858/logs/LOG16__phi2_server_grammar__t1.json
LOG17,LOG,phi2_server_nogrammar,1,ok,4.5355,4.5123,Yes,No,0,runs_server/20251221_180858/logs/LOG17__phi2_server_nogrammar__t1.json
LOG17,LOG,phi2_server_grammar,1,ok,1.7412,1.7319,Yes,No,0,runs_server/20251221_180858/logs/LOG17__phi2_server_grammar__t1.json
LOG18,LOG,phi2_server_nogrammar,1,ok,8.5250,8.5081,Yes,Yes,1,runs_server/20251221_180858/logs/LOG18__phi2_server_nogrammar__t1.json
LOG18,LOG,phi2_server_grammar,1,ok,1.7014,1.6964,Yes,Yes,1,runs_server/20251221_180858/logs/LOG18__phi2_server_grammar__t1.json
LOG19,LOG,phi2_server_nogrammar,1,ok,9.2561,9.2319,Yes,Yes,1,runs_server/20251221_180858/logs/LOG19__phi2_server_nogrammar__t1.json
LOG19,LOG,phi2_server_grammar,1,ok,1.7304,1.7247,Yes,Yes,1,runs_server/20251221_180858/logs/LOG19__phi2_server_grammar__t1.json
LOG20,LOG,phi2_server_nogrammar,1,ok,15.8167,15.7932,Yes,No,0,runs_server/20251221_180858/logs/LOG20__phi2_server_nogrammar__t1.json
LOG20,LOG,phi2_server_grammar,1,ok,1.7543,1.7491,Yes,No,0,runs_server/20251221_180858/logs/LOG20__phi2_server_grammar__t1.json
LOG21,LOG,phi2_server_nogrammar,1,ok,4.5902,4.5526,Yes,Yes,1,runs_server/20251221_180858/logs/LOG21__phi2_server_nogrammar__t1.json
LOG21,LOG,phi2_server_grammar,1,ok,1.7443,1.7392,Yes,Yes,1,runs_server/20251221_180858/logs/LOG21__phi2_server_grammar__t1.json
LOG22,LOG,phi2_server_nogrammar,1,ok,4.6227,4.5874,No,Yes,0,runs_server/20251221_180858/logs/LOG22__phi2_server_nogrammar__t1.json
LOG22,LOG,phi2_server_grammar,1,ok,1.7097,1.7047,No,Yes,0,runs_server/20251221_180858/logs/LOG22__phi2_server_grammar__t1.json
LOG23,LOG,phi2_server_nogrammar,1,ok,4.5813,4.5513,Yes,Yes,1,runs_server/20251221_180858/logs/LOG23__phi2_server_nogrammar__t1.json
LOG23,LOG,phi2_server_grammar,1,ok,1.7562,1.7512,Yes,Yes,1,runs_server/20251221_180858/logs/LOG23__phi2_server_grammar__t1.json
LOG24,LOG,phi2_server_nogrammar,1,ok,4.6722,4.6316,No,Yes,0,runs_server/20251221_180858/logs/LOG24__phi2_server_nogrammar__t1.json
LOG24,LOG,phi2_server_grammar,1,ok,1.7514,1.7464,No,Yes,0,runs_server/20251221_180858/logs/LOG24__phi2_server_grammar__t1.json
LOG25,LOG,phi2_server_nogrammar,1,ok,4.5466,4.5127,Yes,Yes,1,runs_server/20251221_180858/logs/LOG25__phi2_server_nogrammar__t1.json
LOG25,LOG,phi2_server_grammar,1,ok,1.8190,1.8140,Yes,Yes,1,runs_server/20251221_180858/logs/LOG25__phi2_server_grammar__t1.json
LOG26,LOG,phi2_server_nogrammar,1,ok,4.6615,4.6411,No,No,1,runs_server/20251221_180858/logs/LOG26__phi2_server_nogrammar__t1.json
LOG26,LOG,phi2_server_grammar,1,ok,1.7136,1.7086,No,No,1,runs_server/20251221_180858/logs/LOG26__phi2_server_grammar__t1.json
LOG27,LOG,phi2_server_nogrammar,1,ok,4.6357,4.6147,Yes,No,0,runs_server/20251221_180858/logs/LOG27__phi2_server_nogrammar__t1.json
LOG27,LOG,phi2_server_grammar,1,ok,1.8145,1.8095,Yes,No,0,runs_server/20251221_180858/logs/LOG27__phi2_server_grammar__t1.json
LOG28,LOG,phi2_server_nogrammar,1,ok,1.6487,1.6276,Yes,Yes,1,runs_server/20251221_180858/logs/LOG28__phi2_server_nogrammar__t1.json
LOG28,LOG,phi2_server_grammar,1,ok,1.7057,1.7006,Yes,Yes,1,runs_server/20251221_180858/logs/LOG28__phi2_server_grammar__t1.json
LOG29,LOG,phi2_server_nogrammar,1,ok,1.7177,1.6972,Yes,Yes,1,runs_server/20251221_180858/logs/LOG29__phi2_server_nogrammar__t1.json
LOG29,LOG,phi2_server_grammar,1,ok,1.7354,1.7304,Yes,Yes,1,runs_server/20251221_180858/logs/LOG29__phi2_server_grammar__t1.json
LOG30,LOG,phi2_server_nogrammar,1,ok,4.5745,4.5523,Yes,No,0,runs_server/20251221_180858/logs/LOG30__phi2_server_nogrammar__t1.json
LOG30,LOG,phi2_server_grammar,1,ok,1.7519,1.7468,Yes,No,0,runs_server/20251221_180858/logs/LOG30__phi2_server_grammar__t1.json
LOG31,LOG,phi2_server_nogrammar,1,ok,4.6865,4.6619,Yes,Yes,1,runs_server/20251221_180858/logs/LOG31__phi2_server_nogrammar__t1.json
LOG31,LOG,phi2_server_grammar,1,ok,1.7852,1.7785,Yes,Yes,1,runs_server/20251221_180858/logs/LOG31__phi2_server_grammar__t1.json
LOG32,LOG,phi2_server_nogrammar,1,ok,4.5584,4.5208,No,Yes,0,runs_server/20251221_180858/logs/LOG32__phi2_server_nogrammar__t1.json
LOG32,LOG,phi2_server_grammar,1,ok,1.8175,1.8125,No,Yes,0,runs_server/20251221_180858/logs/LOG32__phi2_server_grammar__t1.json
LOG33,LOG,phi2_server_nogrammar,1,ok,4.5522,4.5256,Yes,Yes,1,runs_server/20251221_180858/logs/LOG33__phi2_server_nogrammar__t1.json
LOG33,LOG,phi2_server_grammar,1,ok,1.7536,1.7485,Yes,Yes,1,runs_server/20251221_180858/logs/LOG33__phi2_server_grammar__t1.json
LOG34,LOG,phi2_server_nogrammar,1,ok,4.6797,4.6520,No,Yes,0,runs_server/20251221_180858/logs/LOG34__phi2_server_nogrammar__t1.json
LOG34,LOG,phi2_server_grammar,1,ok,1.7152,1.7102,No,Yes,0,runs_server/20251221_180858/logs/LOG34__phi2_server_grammar__t1.json
LOG35,LOG,phi2_server_nogrammar,1,ok,4.5946,4.5715,Yes,Yes,1,runs_server/20251221_180858/logs/LOG35__phi2_server_nogrammar__t1.json
LOG35,LOG,phi2_server_grammar,1,ok,1.7401,1.7323,Yes,Yes,1,runs_server/20251221_180858/logs/LOG35__phi2_server_grammar__t1.json
LOG36,LOG,phi2_server_nogrammar,1,ok,4.6428,4.6118,No,No,1,runs_server/20251221_180858/logs/LOG36__phi2_server_nogrammar__t1.json
LOG36,LOG,phi2_server_grammar,1,ok,1.6935,1.6857,No,No,1,runs_server/20251221_180858/logs/LOG36__phi2_server_grammar__t1.json
LOG37,LOG,phi2_server_nogrammar,1,ok,4.7395,4.7195,Yes,No,0,runs_server/20251221_180858/logs/LOG37__phi2_server_nogrammar__t1.json
LOG37,LOG,phi2_server_grammar,1,ok,1.6996,1.6930,Yes,No,0,runs_server/20251221_180858/logs/LOG37__phi2_server_grammar__t1.json
LOG38,LOG,phi2_server_nogrammar,1,ok,1.7140,1.6936,Yes,Yes,1,runs_server/20251221_180858/logs/LOG38__phi2_server_nogrammar__t1.json
LOG38,LOG,phi2_server_grammar,1,ok,1.7459,1.7408,Yes,Yes,1,runs_server/20251221_180858/logs/LOG38__phi2_server_grammar__t1.json
LOG39,LOG,phi2_server_nogrammar,1,ok,1.7388,1.7167,Yes,Yes,1,runs_server/20251221_180858/logs/LOG39__phi2_server_nogrammar__t1.json
LOG39,LOG,phi2_server_grammar,1,ok,1.6615,1.6565,Yes,Yes,1,runs_server/20251221_180858/logs/LOG39__phi2_server_grammar__t1.json
LOG40,LOG,phi2_server_nogrammar,1,ok,4.6884,4.6659,Yes,No,0,runs_server/20251221_180858/logs/LOG40__phi2_server_nogrammar__t1.json
LOG40,LOG,phi2_server_grammar,1,ok,1.7115,1.7063,Yes,No,0,runs_server/20251221_180858/logs/LOG40__phi2_server_grammar__t1.json
LOG41,LOG,phi2_server_nogrammar,1,ok,4.6480,4.6208,Yes,Yes,1,runs_server/20251221_180858/logs/LOG41__phi2_server_nogrammar__t1.json
LOG41,LOG,phi2_server_grammar,1,ok,1.6994,1.6926,Yes,Yes,1,runs_server/20251221_180858/logs/LOG41__phi2_server_grammar__t1.json
LOG42,LOG,phi2_server_nogrammar,1,ok,4.6269,4.5990,No,Yes,0,runs_server/20251221_180858/logs/LOG42__phi2_server_nogrammar__t1.json
LOG42,LOG,phi2_server_grammar,1,ok,1.7979,1.7883,No,Yes,0,runs_server/20251221_180858/logs/LOG42__phi2_server_grammar__t1.json
LOG43,LOG,phi2_server_nogrammar,1,ok,4.6228,4.5803,Yes,Yes,1,runs_server/20251221_180858/logs/LOG43__phi2_server_nogrammar__t1.json
LOG43,LOG,phi2_server_grammar,1,ok,1.7510,1.7457,Yes,Yes,1,runs_server/20251221_180858/logs/LOG43__phi2_server_grammar__t1.json
LOG44,LOG,phi2_server_nogrammar,1,ok,4.7348,4.7018,No,Yes,0,runs_server/20251221_180858/logs/LOG44__phi2_server_nogrammar__t1.json
LOG44,LOG,phi2_server_grammar,1,ok,1.7867,1.7817,No,Yes,0,runs_server/20251221_180858/logs/LOG44__phi2_server_grammar__t1.json
LOG45,LOG,phi2_server_nogrammar,1,ok,4.6361,4.6115,Yes,Yes,1,runs_server/20251221_180858/logs/LOG45__phi2_server_nogrammar__t1.json
LOG45,LOG,phi2_server_grammar,1,ok,1.7014,1.6907,Yes,Yes,1,runs_server/20251221_180858/logs/LOG45__phi2_server_grammar__t1.json
LOG46,LOG,phi2_server_nogrammar,1,ok,4.5972,4.5629,No,No,1,runs_server/20251221_180858/logs/LOG46__phi2_server_nogrammar__t1.json
LOG46,LOG,phi2_server_grammar,1,ok,1.7997,1.7894,No,No,1,runs_server/20251221_180858/logs/LOG46__phi2_server_grammar__t1.json
LOG47,LOG,phi2_server_nogrammar,1,ok,4.6300,4.5943,Yes,No,0,runs_server/20251221_180858/logs/LOG47__phi2_server_nogrammar__t1.json
LOG47,LOG,phi2_server_grammar,1,ok,1.8620,1.8571,Yes,No,0,runs_server/20251221_180858/logs/LOG47__phi2_server_grammar__t1.json
LOG48,LOG,phi2_server_nogrammar,1,ok,1.7220,1.6994,Yes,Yes,1,runs_server/20251221_180858/logs/LOG48__phi2_server_nogrammar__t1.json
LOG48,LOG,phi2_server_grammar,1,ok,1.7032,1.6982,Yes,Yes,1,runs_server/20251221_180858/logs/LOG48__phi2_server_grammar__t1.json
LOG49,LOG,phi2_server_nogrammar,1,ok,1.7184,1.6974,Yes,Yes,1,runs_server/20251221_180858/logs/LOG49__phi2_server_nogrammar__t1.json
LOG49,LOG,phi2_server_grammar,1,ok,1.7300,1.7249,Yes,Yes,1,runs_server/20251221_180858/logs/LOG49__phi2_server_grammar__t1.json
LOG50,LOG,phi2_server_nogrammar,1,ok,4.6398,4.6096,Yes,No,0,runs_server/20251221_180858/logs/LOG50__phi2_server_nogrammar__t1.json
LOG50,LOG,phi2_server_grammar,1,ok,1.7428,1.7368,Yes,No,0,runs_server/20251221_180858/logs/LOG50__phi2_server_grammar__t1.json
LOG51,LOG,phi2_server_nogrammar,1,ok,4.6751,4.6441,Yes,Yes,1,runs_server/20251221_180858/logs/LOG51__phi2_server_nogrammar__t1.json
LOG51,LOG,phi2_server_grammar,1,ok,1.7442,1.7388,Yes,Yes,1,runs_server/20251221_180858/logs/LOG51__phi2_server_grammar__t1.json
LOG52,LOG,phi2_server_nogrammar,1,ok,4.5834,4.5561,No,Yes,0,runs_server/20251221_180858/logs/LOG52__phi2_server_nogrammar__t1.json
LOG52,LOG,phi2_server_grammar,1,ok,1.7491,1.7413,No,Yes,0,runs_server/20251221_180858/logs/LOG52__phi2_server_grammar__t1.json
LOG53,LOG,phi2_server_nogrammar,1,ok,4.7758,4.7471,Yes,Yes,1,runs_server/20251221_180858/logs/LOG53__phi2_server_nogrammar__t1.json
LOG53,LOG,phi2_server_grammar,1,ok,1.8284,1.8204,Yes,Yes,1,runs_server/20251221_180858/logs/LOG53__phi2_server_grammar__t1.json
LOG54,LOG,phi2_server_nogrammar,1,ok,4.5992,4.5697,No,Yes,0,runs_server/20251221_180858/logs/LOG54__phi2_server_nogrammar__t1.json
LOG54,LOG,phi2_server_grammar,1,ok,1.7575,1.7492,No,Yes,0,runs_server/20251221_180858/logs/LOG54__phi2_server_grammar__t1.json
LOG55,LOG,phi2_server_nogrammar,1,ok,4.5421,4.5162,Yes,Yes,1,runs_server/20251221_180858/logs/LOG55__phi2_server_nogrammar__t1.json
LOG55,LOG,phi2_server_grammar,1,ok,1.7104,1.7044,Yes,Yes,1,runs_server/20251221_180858/logs/LOG55__phi2_server_grammar__t1.json
LOG56,LOG,phi2_server_nogrammar,1,ok,4.5909,4.5677,No,No,1,runs_server/20251221_180858/logs/LOG56__phi2_server_nogrammar__t1.json
LOG56,LOG,phi2_server_grammar,1,ok,1.8862,1.8798,No,No,1,runs_server/20251221_180858/logs/LOG56__phi2_server_grammar__t1.json
LOG57,LOG,phi2_server_nogrammar,1,ok,4.4831,4.4628,Yes,No,0,runs_server/20251221_180858/logs/LOG57__phi2_server_nogrammar__t1.json
LOG57,LOG,phi2_server_grammar,1,ok,1.7816,1.7746,Yes,No,0,runs_server/20251221_180858/logs/LOG57__phi2_server_grammar__t1.json
LOG58,LOG,phi2_server_nogrammar,1,ok,1.8031,1.7806,Yes,Yes,1,runs_server/20251221_180858/logs/LOG58__phi2_server_nogrammar__t1.json
LOG58,LOG,phi2_server_grammar,1,ok,1.6984,1.6918,Yes,Yes,1,runs_server/20251221_180858/logs/LOG58__phi2_server_grammar__t1.json
LOG59,LOG,phi2_server_nogrammar,1,ok,1.7071,1.6870,Yes,Yes,1,runs_server/20251221_180858/logs/LOG59__phi2_server_nogrammar__t1.json
LOG59,LOG,phi2_server_grammar,1,ok,1.6651,1.6599,Yes,Yes,1,runs_server/20251221_180858/logs/LOG59__phi2_server_grammar__t1.json
LOG60,LOG,phi2_server_nogrammar,1,ok,4.6852,4.6555,Yes,No,0,runs_server/20251221_180858/logs/LOG60__phi2_server_nogrammar__t1.json
LOG60,LOG,phi2_server_grammar,1,ok,1.7968,1.7888,Yes,No,0,runs_server/20251221_180858/logs/LOG60__phi2_server_grammar__t1.json
LOG61,LOG,phi2_server_nogrammar,1,ok,4.5229,4.4963,Yes,Yes,1,runs_server/20251221_180858/logs/LOG61__phi2_server_nogrammar__t1.json
LOG61,LOG,phi2_server_grammar,1,ok,1.8655,1.8575,Yes,Yes,1,runs_server/20251221_180858/logs/LOG61__phi2_server_grammar__t1.json
LOG62,LOG,phi2_server_nogrammar,1,ok,4.4985,4.4718,No,Yes,0,runs_server/20251221_180858/logs/LOG62__phi2_server_nogrammar__t1.json
LOG62,LOG,phi2_server_grammar,1,ok,1.8110,1.8027,No,Yes,0,runs_server/20251221_180858/logs/LOG62__phi2_server_grammar__t1.json
LOG63,LOG,phi2_server_nogrammar,1,ok,4.5186,4.4904,Yes,Yes,1,runs_server/20251221_180858/logs/LOG63__phi2_server_nogrammar__t1.json
LOG63,LOG,phi2_server_grammar,1,ok,1.8192,1.8142,Yes,Yes,1,runs_server/20251221_180858/logs/LOG63__phi2_server_grammar__t1.json
LOG64,LOG,phi2_server_nogrammar,1,ok,4.6541,4.6121,No,Yes,0,runs_server/20251221_180858/logs/LOG64__phi2_server_nogrammar__t1.json
LOG64,LOG,phi2_server_grammar,1,ok,1.7120,1.7070,No,Yes,0,runs_server/20251221_180858/logs/LOG64__phi2_server_grammar__t1.json
LOG65,LOG,phi2_server_nogrammar,1,ok,4.6248,4.5892,Yes,Yes,1,runs_server/20251221_180858/logs/LOG65__phi2_server_nogrammar__t1.json
LOG65,LOG,phi2_server_grammar,1,ok,1.7576,1.7509,Yes,Yes,1,runs_server/20251221_180858/logs/LOG65__phi2_server_grammar__t1.json
LOG66,LOG,phi2_server_nogrammar,1,ok,4.5446,4.5196,No,No,1,runs_server/20251221_180858/logs/LOG66__phi2_server_nogrammar__t1.json
LOG66,LOG,phi2_server_grammar,1,ok,1.7336,1.7241,No,No,1,runs_server/20251221_180858/logs/LOG66__phi2_server_grammar__t1.json
LOG67,LOG,phi2_server_nogrammar,1,ok,4.5809,4.5497,Yes,No,0,runs_server/20251221_180858/logs/LOG67__phi2_server_nogrammar__t1.json
LOG67,LOG,phi2_server_grammar,1,ok,1.7090,1.7040,Yes,No,0,runs_server/20251221_180858/logs/LOG67__phi2_server_grammar__t1.json
LOG68,LOG,phi2_server_nogrammar,1,ok,1.7249,1.7038,Yes,Yes,1,runs_server/20251221_180858/logs/LOG68__phi2_server_nogrammar__t1.json
LOG68,LOG,phi2_server_grammar,1,ok,1.6234,1.6121,Yes,Yes,1,runs_server/20251221_180858/logs/LOG68__phi2_server_grammar__t1.json
LOG69,LOG,phi2_server_nogrammar,1,ok,1.7673,1.7359,Yes,Yes,1,runs_server/20251221_180858/logs/LOG69__phi2_server_nogrammar__t1.json
LOG69,LOG,phi2_server_grammar,1,ok,1.5908,1.5858,Yes,Yes,1,runs_server/20251221_180858/logs/LOG69__phi2_server_grammar__t1.json
LOG70,LOG,phi2_server_nogrammar,1,ok,4.6357,4.6132,Yes,No,0,runs_server/20251221_180858/logs/LOG70__phi2_server_nogrammar__t1.json
LOG70,LOG,phi2_server_grammar,1,ok,1.7534,1.7480,Yes,No,0,runs_server/20251221_180858/logs/LOG70__phi2_server_grammar__t1.json
LOG71,LOG,phi2_server_nogrammar,1,ok,4.5816,4.5553,Yes,Yes,1,runs_server/20251221_180858/logs/LOG71__phi2_server_nogrammar__t1.json
LOG71,LOG,phi2_server_grammar,1,ok,1.7903,1.7851,Yes,Yes,1,runs_server/20251221_180858/logs/LOG71__phi2_server_grammar__t1.json
LOG72,LOG,phi2_server_nogrammar,1,ok,4.5372,4.5121,No,Yes,0,runs_server/20251221_180858/logs/LOG72__phi2_server_nogrammar__t1.json
LOG72,LOG,phi2_server_grammar,1,ok,1.7808,1.7756,No,Yes,0,runs_server/20251221_180858/logs/LOG72__phi2_server_grammar__t1.json
LOG73,LOG,phi2_server_nogrammar,1,ok,4.6625,4.6208,Yes,Yes,1,runs_server/20251221_180858/logs/LOG73__phi2_server_nogrammar__t1.json
LOG73,LOG,phi2_server_grammar,1,ok,1.6770,1.6717,Yes,Yes,1,runs_server/20251221_180858/logs/LOG73__phi2_server_grammar__t1.json
LOG74,LOG,phi2_server_nogrammar,1,ok,4.5391,4.5113,No,Yes,0,runs_server/20251221_180858/logs/LOG74__phi2_server_nogrammar__t1.json
LOG74,LOG,phi2_server_grammar,1,ok,1.7209,1.7159,No,Yes,0,runs_server/20251221_180858/logs/LOG74__phi2_server_grammar__t1.json
LOG75,LOG,phi2_server_nogrammar,1,ok,4.5694,4.5446,Yes,Yes,1,runs_server/20251221_180858/logs/LOG75__phi2_server_nogrammar__t1.json
LOG75,LOG,phi2_server_grammar,1,ok,1.7996,1.7900,Yes,Yes,1,runs_server/20251221_180858/logs/LOG75__phi2_server_grammar__t1.json
LOG76,LOG,phi2_server_nogrammar,1,ok,4.4271,4.4046,No,No,1,runs_server/20251221_180858/logs/LOG76__phi2_server_nogrammar__t1.json
LOG76,LOG,phi2_server_grammar,1,ok,1.7950,1.7873,No,No,1,runs_server/20251221_180858/logs/LOG76__phi2_server_grammar__t1.json
LOG77,LOG,phi2_server_nogrammar,1,ok,4.5279,4.5080,Yes,No,0,runs_server/20251221_180858/logs/LOG77__phi2_server_nogrammar__t1.json
LOG77,LOG,phi2_server_grammar,1,ok,1.7445,1.7391,Yes,No,0,runs_server/20251221_180858/logs/LOG77__phi2_server_grammar__t1.json
LOG78,LOG,phi2_server_nogrammar,1,ok,1.6793,1.6546,Yes,Yes,1,runs_server/20251221_180858/logs/LOG78__phi2_server_nogrammar__t1.json
LOG78,LOG,phi2_server_grammar,1,ok,1.7949,1.7880,Yes,Yes,1,runs_server/20251221_180858/logs/LOG78__phi2_server_grammar__t1.json
LOG79,LOG,phi2_server_nogrammar,1,ok,1.6456,1.6261,Yes,Yes,1,runs_server/20251221_180858/logs/LOG79__phi2_server_nogrammar__t1.json
LOG79,LOG,phi2_server_grammar,1,ok,1.6429,1.6362,Yes,Yes,1,runs_server/20251221_180858/logs/LOG79__phi2_server_grammar__t1.json
LOG80,LOG,phi2_server_nogrammar,1,ok,4.5556,4.5207,Yes,No,0,runs_server/20251221_180858/logs/LOG80__phi2_server_nogrammar__t1.json
LOG80,LOG,phi2_server_grammar,1,ok,1.7132,1.7081,Yes,No,0,runs_server/20251221_180858/logs/LOG80__phi2_server_grammar__t1.json
LOG81,LOG,phi2_server_nogrammar,1,ok,4.5553,4.5202,Yes,Yes,1,runs_server/20251221_180858/logs/LOG81__phi2_server_nogrammar__t1.json
LOG81,LOG,phi2_server_grammar,1,ok,1.7478,1.7381,Yes,Yes,1,runs_server/20251221_180858/logs/LOG81__phi2_server_grammar__t1.json
LOG82,LOG,phi2_server_nogrammar,1,ok,4.5462,4.5193,No,Yes,0,runs_server/20251221_180858/logs/LOG82__phi2_server_nogrammar__t1.json
LOG82,LOG,phi2_server_grammar,1,ok,1.7261,1.7182,No,Yes,0,runs_server/20251221_180858/logs/LOG82__phi2_server_grammar__t1.json
LOG83,LOG,phi2_server_nogrammar,1,ok,4.5073,4.4811,Yes,Yes,1,runs_server/20251221_180858/logs/LOG83__phi2_server_nogrammar__t1.json
LOG83,LOG,phi2_server_grammar,1,ok,1.6760,1.6709,Yes,Yes,1,runs_server/20251221_180858/logs/LOG83__phi2_server_grammar__t1.json
LOG84,LOG,phi2_server_nogrammar,1,ok,4.5830,4.5553,No,Yes,0,runs_server/20251221_180858/logs/LOG84__phi2_server_nogrammar__t1.json
LOG84,LOG,phi2_server_grammar,1,ok,1.6919,1.6866,No,Yes,0,runs_server/20251221_180858/logs/LOG84__phi2_server_grammar__t1.json
LOG85,LOG,phi2_server_nogrammar,1,ok,4.5811,4.5526,Yes,Yes,1,runs_server/20251221_180858/logs/LOG85__phi2_server_nogrammar__t1.json
LOG85,LOG,phi2_server_grammar,1,ok,1.7445,1.7395,Yes,Yes,1,runs_server/20251221_180858/logs/LOG85__phi2_server_grammar__t1.json
LOG86,LOG,phi2_server_nogrammar,1,ok,4.4847,4.4650,No,No,1,runs_server/20251221_180858/logs/LOG86__phi2_server_nogrammar__t1.json
LOG86,LOG,phi2_server_grammar,1,ok,1.7088,1.7038,No,No,1,runs_server/20251221_180858/logs/LOG86__phi2_server_grammar__t1.json
LOG87,LOG,phi2_server_nogrammar,1,ok,4.5223,4.5016,Yes,No,0,runs_server/20251221_180858/logs/LOG87__phi2_server_nogrammar__t1.json
LOG87,LOG,phi2_server_grammar,1,ok,1.7358,1.7289,Yes,No,0,runs_server/20251221_180858/logs/LOG87__phi2_server_grammar__t1.json
LOG88,LOG,phi2_server_nogrammar,1,ok,1.7570,1.7361,Yes,Yes,1,runs_server/20251221_180858/logs/LOG88__phi2_server_nogrammar__t1.json
LOG88,LOG,phi2_server_grammar,1,ok,1.6330,1.6262,Yes,Yes,1,runs_server/20251221_180858/logs/LOG88__phi2_server_grammar__t1.json
LOG89,LOG,phi2_server_nogrammar,1,ok,1.7072,1.6741,Yes,Yes,1,runs_server/20251221_180858/logs/LOG89__phi2_server_nogrammar__t1.json
LOG89,LOG,phi2_server_grammar,1,ok,1.6408,1.6331,Yes,Yes,1,runs_server/20251221_180858/logs/LOG89__phi2_server_grammar__t1.json
LOG90,LOG,phi2_server_nogrammar,1,ok,4.5429,4.5200,Yes,No,0,runs_server/20251221_180858/logs/LOG90__phi2_server_nogrammar__t1.json
LOG90,LOG,phi2_server_grammar,1,ok,1.6896,1.6793,Yes,No,0,runs_server/20251221_180858/logs/LOG90__phi2_server_grammar__t1.json
LOG91,LOG,phi2_server_nogrammar,1,ok,4.5780,4.5514,Yes,Yes,1,runs_server/20251221_180858/logs/LOG91__phi2_server_nogrammar__t1.json
LOG91,LOG,phi2_server_grammar,1,ok,1.6366,1.6287,Yes,Yes,1,runs_server/20251221_180858/logs/LOG91__phi2_server_grammar__t1.json
LOG92,LOG,phi2_server_nogrammar,1,ok,4.4932,4.4555,No,Yes,0,runs_server/20251221_180858/logs/LOG92__phi2_server_nogrammar__t1.json
LOG92,LOG,phi2_server_grammar,1,ok,1.6964,1.6896,No,Yes,0,runs_server/20251221_180858/logs/LOG92__phi2_server_grammar__t1.json
LOG93,LOG,phi2_server_nogrammar,1,ok,4.4663,4.4387,Yes,Yes,1,runs_server/20251221_180858/logs/LOG93__phi2_server_nogrammar__t1.json
LOG93,LOG,phi2_server_grammar,1,ok,1.6800,1.6748,Yes,Yes,1,runs_server/20251221_180858/logs/LOG93__phi2_server_grammar__t1.json
LOG94,LOG,phi2_server_nogrammar,1,ok,4.5878,4.5462,No,Yes,0,runs_server/20251221_180858/logs/LOG94__phi2_server_nogrammar__t1.json
LOG94,LOG,phi2_server_grammar,1,ok,1.7539,1.7488,No,Yes,0,runs_server/20251221_180858/logs/LOG94__phi2_server_grammar__t1.json
LOG95,LOG,phi2_server_nogrammar,1,ok,4.4513,4.4285,Yes,Yes,1,runs_server/20251221_180858/logs/LOG95__phi2_server_nogrammar__t1.json
LOG95,LOG,phi2_server_grammar,1,ok,1.7509,1.7459,Yes,Yes,1,runs_server/20251221_180858/logs/LOG95__phi2_server_grammar__t1.json
LOG96,LOG,phi2_server_nogrammar,1,ok,4.5433,4.5126,No,No,1,runs_server/20251221_180858/logs/LOG96__phi2_server_nogrammar__t1.json
LOG96,LOG,phi2_server_grammar,1,ok,1.7191,1.7121,No,No,1,runs_server/20251221_180858/logs/LOG96__phi2_server_grammar__t1.json
LOG97,LOG,phi2_server_nogrammar,1,ok,4.6516,4.6218,Yes,No,0,runs_server/20251221_180858/logs/LOG97__phi2_server_nogrammar__t1.json
LOG97,LOG,phi2_server_grammar,1,ok,1.6469,1.6391,Yes,No,0,runs_server/20251221_180858/logs/LOG97__phi2_server_grammar__t1.json
LOG98,LOG,phi2_server_nogrammar,1,ok,1.6498,1.6289,Yes,Yes,1,runs_server/20251221_180858/logs/LOG98__phi2_server_nogrammar__t1.json
LOG98,LOG,phi2_server_grammar,1,ok,1.6672,1.6592,Yes,Yes,1,runs_server/20251221_180858/logs/LOG98__phi2_server_grammar__t1.json
LOG99,LOG,phi2_server_nogrammar,1,ok,1.7147,1.6947,Yes,Yes,1,runs_server/20251221_180858/logs/LOG99__phi2_server_nogrammar__t1.json
LOG99,LOG,phi2_server_grammar,1,ok,1.6226,1.6160,Yes,Yes,1,runs_server/20251221_180858/logs/LOG99__phi2_server_grammar__t1.json
LOG100,LOG,phi2_server_nogrammar,1,ok,4.4619,4.4397,Yes,No,0,runs_server/20251221_180858/logs/LOG100__phi2_server_nogrammar__t1.json
LOG100,LOG,phi2_server_grammar,1,ok,1.8149,1.8095,Yes,No,0,runs_server/20251221_180858/logs/LOG100__phi2_server_grammar__t1.json
WP11,WP,phi2_server_nogrammar,1,ok,9.3459,9.3249,182,182,1,runs_server/20251221_180858/logs/WP11__phi2_server_nogrammar__t1.json
WP11,WP,phi2_server_grammar,1,ok,1.6978,1.6922,182,182,1,runs_server/20251221_180858/logs/WP11__phi2_server_grammar__t1.json
WP12,WP,phi2_server_nogrammar,1,ok,8.6448,8.6174,150,150,1,runs_server/20251221_180858/logs/WP12__phi2_server_nogrammar__t1.json
WP12,WP,phi2_server_grammar,1,ok,1.6623,1.6570,150,150,1,runs_server/20251221_180858/logs/WP12__phi2_server_grammar__t1.json
WP13,WP,phi2_server_nogrammar,1,ok,8.9755,8.9554,130,130,1,runs_server/20251221_180858/logs/WP13__phi2_server_nogrammar__t1.json
WP13,WP,phi2_server_grammar,1,ok,1.6464,1.6384,130,130,1,runs_server/20251221_180858/logs/WP13__phi2_server_grammar__t1.json
WP14,WP,phi2_server_nogrammar,1,ok,11.5325,11.5127,25,25,1,runs_server/20251221_180858/logs/WP14__phi2_server_nogrammar__t1.json
WP14,WP,phi2_server_grammar,1,ok,1.6306,1.6256,25,25,1,runs_server/20251221_180858/logs/WP14__phi2_server_grammar__t1.json
WP15,WP,phi2_server_nogrammar,1,ok,10.3461,10.3151,6,6,1,runs_server/20251221_180858/logs/WP15__phi2_server_nogrammar__t1.json
WP15,WP,phi2_server_grammar,1,ok,2.0721,2.0671,6,6,1,runs_server/20251221_180858/logs/WP15__phi2_server_grammar__t1.json
WP16,WP,phi2_server_nogrammar,1,ok,10.0570,10.0131,35,35,1,runs_server/20251221_180858/logs/WP16__phi2_server_nogrammar__t1.json
WP16,WP,phi2_server_grammar,1,ok,1.6241,1.6191,35,35,1,runs_server/20251221_180858/logs/WP16__phi2_server_grammar__t1.json
WP17,WP,phi2_server_nogrammar,1,ok,9.5292,9.5000,16,16,1,runs_server/20251221_180858/logs/WP17__phi2_server_nogrammar__t1.json
WP17,WP,phi2_server_grammar,1,ok,1.6266,1.6215,16,16,1,runs_server/20251221_180858/logs/WP17__phi2_server_grammar__t1.json
WP18,WP,phi2_server_nogrammar,1,ok,10.2809,10.2407,75,75,1,runs_server/20251221_180858/logs/WP18__phi2_server_nogrammar__t1.json
WP18,WP,phi2_server_grammar,1,ok,1.7033,1.6983,75,75,1,runs_server/20251221_180858/logs/WP18__phi2_server_grammar__t1.json
WP19,WP,phi2_server_nogrammar,1,ok,9.5390,9.5094,168,168,1,runs_server/20251221_180858/logs/WP19__phi2_server_nogrammar__t1.json
WP19,WP,phi2_server_grammar,1,ok,1.6306,1.6256,168,168,1,runs_server/20251221_180858/logs/WP19__phi2_server_grammar__t1.json
WP20,WP,phi2_server_nogrammar,1,ok,13.3421,13.3276,35,35,1,runs_server/20251221_180858/logs/WP20__phi2_server_nogrammar__t1.json
WP20,WP,phi2_server_grammar,1,ok,2.2287,2.2238,35,35,1,runs_server/20251221_180858/logs/WP20__phi2_server_grammar__t1.json
WP21,WP,phi2_server_nogrammar,1,ok,9.4072,9.3799,110,110,1,runs_server/20251221_180858/logs/WP21__phi2_server_nogrammar__t1.json
WP21,WP,phi2_server_grammar,1,ok,1.6948,1.6879,110,110,1,runs_server/20251221_180858/logs/WP21__phi2_server_grammar__t1.json
WP22,WP,phi2_server_nogrammar,1,ok,8.5895,8.5626,360,360,1,runs_server/20251221_180858/logs/WP22__phi2_server_nogrammar__t1.json
WP22,WP,phi2_server_grammar,1,ok,1.6701,1.6653,360,360,1,runs_server/20251221_180858/logs/WP22__phi2_server_grammar__t1.json
WP23,WP,phi2_server_nogrammar,1,ok,8.7248,8.7053,18,18,1,runs_server/20251221_180858/logs/WP23__phi2_server_nogrammar__t1.json
WP23,WP,phi2_server_grammar,1,ok,1.6155,1.6088,18,18,1,runs_server/20251221_180858/logs/WP23__phi2_server_grammar__t1.json
WP24,WP,phi2_server_nogrammar,1,ok,10.5632,10.5416,60,60,1,runs_server/20251221_180858/logs/WP24__phi2_server_nogrammar__t1.json
WP24,WP,phi2_server_grammar,1,ok,1.5952,1.5901,60,60,1,runs_server/20251221_180858/logs/WP24__phi2_server_grammar__t1.json
WP25,WP,phi2_server_nogrammar,1,ok,10.0703,10.0490,5,5,1,runs_server/20251221_180858/logs/WP25__phi2_server_nogrammar__t1.json
WP25,WP,phi2_server_grammar,1,ok,2.2144,2.2093,5,5,1,runs_server/20251221_180858/logs/WP25__phi2_server_grammar__t1.json
WP26,WP,phi2_server_nogrammar,1,ok,9.8120,9.7913,40,40,1,runs_server/20251221_180858/logs/WP26__phi2_server_nogrammar__t1.json
WP26,WP,phi2_server_grammar,1,ok,1.6929,1.6878,40,40,1,runs_server/20251221_180858/logs/WP26__phi2_server_grammar__t1.json
WP27,WP,phi2_server_nogrammar,1,ok,9.3929,9.3725,2,2,1,runs_server/20251221_180858/logs/WP27__phi2_server_nogrammar__t1.json
WP27,WP,phi2_server_grammar,1,ok,1.6213,1.6161,2,2,1,runs_server/20251221_180858/logs/WP27__phi2_server_grammar__t1.json
WP28,WP,phi2_server_nogrammar,1,ok,10.0879,10.0659,180,180,1,runs_server/20251221_180858/logs/WP28__phi2_server_nogrammar__t1.json
WP28,WP,phi2_server_grammar,1,ok,1.7479,1.7428,180,180,1,runs_server/20251221_180858/logs/WP28__phi2_server_grammar__t1.json
WP29,WP,phi2_server_nogrammar,1,ok,9.3413,9.3207,187,187,1,runs_server/20251221_180858/logs/WP29__phi2_server_nogrammar__t1.json
WP29,WP,phi2_server_grammar,1,ok,1.6258,1.6207,187,187,1,runs_server/20251221_180858/logs/WP29__phi2_server_grammar__t1.json
WP30,WP,phi2_server_nogrammar,1,ok,2.1802,2.1553,35,35,1,runs_server/20251221_180858/logs/WP30__phi2_server_nogrammar__t1.json
WP30,WP,phi2_server_grammar,1,ok,2.1923,2.1871,35,35,1,runs_server/20251221_180858/logs/WP30__phi2_server_grammar__t1.json
WP31,WP,phi2_server_nogrammar,1,ok,8.3142,8.2922,120,120,1,runs_server/20251221_180858/logs/WP31__phi2_server_nogrammar__t1.json
WP31,WP,phi2_server_grammar,1,ok,1.6356,1.6288,120,120,1,runs_server/20251221_180858/logs/WP31__phi2_server_grammar__t1.json
WP32,WP,phi2_server_nogrammar,1,ok,8.3136,8.2850,88,88,1,runs_server/20251221_180858/logs/WP32__phi2_server_nogrammar__t1.json
WP32,WP,phi2_server_grammar,1,ok,1.5777,1.5708,88,88,1,runs_server/20251221_180858/logs/WP32__phi2_server_grammar__t1.json
WP33,WP,phi2_server_nogrammar,1,ok,8.7578,8.7307,20,20,1,runs_server/20251221_180858/logs/WP33__phi2_server_nogrammar__t1.json
WP33,WP,phi2_server_grammar,1,ok,1.6987,1.6938,20,20,1,runs_server/20251221_180858/logs/WP33__phi2_server_grammar__t1.json
WP34,WP,phi2_server_nogrammar,1,ok,9.4041,9.3807,90,90,1,runs_server/20251221_180858/logs/WP34__phi2_server_nogrammar__t1.json
WP34,WP,phi2_server_grammar,1,ok,1.6128,1.6031,90,90,1,runs_server/20251221_180858/logs/WP34__phi2_server_grammar__t1.json
WP35,WP,phi2_server_nogrammar,1,ok,9.9051,9.8732,4,4,1,runs_server/20251221_180858/logs/WP35__phi2_server_nogrammar__t1.json
WP35,WP,phi2_server_grammar,1,ok,2.1597,2.1520,4,4,1,runs_server/20251221_180858/logs/WP35__phi2_server_grammar__t1.json
WP36,WP,phi2_server_nogrammar,1,ok,9.7203,9.6994,22,22,1,runs_server/20251221_180858/logs/WP36__phi2_server_nogrammar__t1.json
WP36,WP,phi2_server_grammar,1,ok,1.6969,1.6899,22,22,1,runs_server/20251221_180858/logs/WP36__phi2_server_grammar__t1.json
WP37,WP,phi2_server_nogrammar,1,ok,9.3205,9.2999,12,12,1,runs_server/20251221_180858/logs/WP37__phi2_server_nogrammar__t1.json
WP37,WP,phi2_server_grammar,1,ok,1.7358,1.7308,12,12,1,runs_server/20251221_180858/logs/WP37__phi2_server_grammar__t1.json
WP38,WP,phi2_server_nogrammar,1,ok,10.1076,10.0856,30,30,1,runs_server/20251221_180858/logs/WP38__phi2_server_nogrammar__t1.json
WP38,WP,phi2_server_grammar,1,ok,1.6546,1.6475,30,30,1,runs_server/20251221_180858/logs/WP38__phi2_server_grammar__t1.json
WP39,WP,phi2_server_nogrammar,1,ok,9.3779,9.3412,72,72,1,runs_server/20251221_180858/logs/WP39__phi2_server_nogrammar__t1.json
WP39,WP,phi2_server_grammar,1,ok,1.6461,1.6350,72,72,1,runs_server/20251221_180858/logs/WP39__phi2_server_grammar__t1.json
WP40,WP,phi2_server_nogrammar,1,ok,11.7320,11.7042,41,41,1,runs_server/20251221_180858/logs/WP40__phi2_server_nogrammar__t1.json
WP40,WP,phi2_server_grammar,1,ok,2.1798,2.1740,41,41,1,runs_server/20251221_180858/logs/WP40__phi2_server_grammar__t1.json
WP41,WP,phi2_server_nogrammar,1,ok,8.3093,8.2843,255,255,1,runs_server/20251221_180858/logs/WP41__phi2_server_nogrammar__t1.json
WP41,WP,phi2_server_grammar,1,ok,1.6782,1.6695,255,255,1,runs_server/20251221_180858/logs/WP41__phi2_server_grammar__t1.json
WP42,WP,phi2_server_nogrammar,1,ok,8.2536,8.2207,352,352,1,runs_server/20251221_180858/logs/WP42__phi2_server_nogrammar__t1.json
WP42,WP,phi2_server_grammar,1,ok,1.6493,1.6409,352,352,1,runs_server/20251221_180858/logs/WP42__phi2_server_grammar__t1.json
WP43,WP,phi2_server_nogrammar,1,ok,8.6429,8.6095,48,48,1,runs_server/20251221_180858/logs/WP43__phi2_server_nogrammar__t1.json
WP43,WP,phi2_server_grammar,1,ok,1.5932,1.5879,48,48,1,runs_server/20251221_180858/logs/WP43__phi2_server_grammar__t1.json
WP44,WP,phi2_server_nogrammar,1,ok,10.4782,10.4553,75,75,1,runs_server/20251221_180858/logs/WP44__phi2_server_nogrammar__t1.json
WP44,WP,phi2_server_grammar,1,ok,1.6710,1.6641,75,75,1,runs_server/20251221_180858/logs/WP44__phi2_server_grammar__t1.json
WP45,WP,phi2_server_nogrammar,1,ok,10.0472,10.0122,1,1,1,runs_server/20251221_180858/logs/WP45__phi2_server_nogrammar__t1.json
WP45,WP,phi2_server_grammar,1,ok,2.2189,2.2123,1,1,1,runs_server/20251221_180858/logs/WP45__phi2_server_grammar__t1.json
WP46,WP,phi2_server_nogrammar,1,ok,1.5786,1.5555,22,22,1,runs_server/20251221_180858/logs/WP46__phi2_server_nogrammar__t1.json
WP46,WP,phi2_server_grammar,1,ok,1.6261,1.6208,22,22,1,runs_server/20251221_180858/logs/WP46__phi2_server_grammar__t1.json
WP47,WP,phi2_server_nogrammar,1,ok,9.3348,9.3113,6,6,1,runs_server/20251221_180858/logs/WP47__phi2_server_nogrammar__t1.json
WP47,WP,phi2_server_grammar,1,ok,1.5576,1.5495,6,6,1,runs_server/20251221_180858/logs/WP47__phi2_server_grammar__t1.json
WP48,WP,phi2_server_nogrammar,1,ok,8.7593,8.7316,35,35,1,runs_server/20251221_180858/logs/WP48__phi2_server_nogrammar__t1.json
WP48,WP,phi2_server_grammar,1,ok,1.6743,1.6644,35,35,1,runs_server/20251221_180858/logs/WP48__phi2_server_grammar__t1.json
WP49,WP,phi2_server_nogrammar,1,ok,9.4239,9.3886,189,189,1,runs_server/20251221_180858/logs/WP49__phi2_server_nogrammar__t1.json
WP49,WP,phi2_server_grammar,1,ok,1.6722,1.6667,189,189,1,runs_server/20251221_180858/logs/WP49__phi2_server_grammar__t1.json
WP50,WP,phi2_server_nogrammar,1,ok,11.7527,11.7256,88,88,1,runs_server/20251221_180858/logs/WP50__phi2_server_nogrammar__t1.json
WP50,WP,phi2_server_grammar,1,ok,2.1861,2.1801,88,88,1,runs_server/20251221_180858/logs/WP50__phi2_server_grammar__t1.json
WP51,WP,phi2_server_nogrammar,1,ok,8.3929,8.3700,39,39,1,runs_server/20251221_180858/logs/WP51__phi2_server_nogrammar__t1.json
WP51,WP,phi2_server_grammar,1,ok,1.6681,1.6626,39,39,1,runs_server/20251221_180858/logs/WP51__phi2_server_grammar__t1.json
WP52,WP,phi2_server_nogrammar,1,ok,8.8747,8.8524,567,567,1,runs_server/20251221_180858/logs/WP52__phi2_server_nogrammar__t1.json
WP52,WP,phi2_server_grammar,1,ok,2.1148,2.1093,567,567,1,runs_server/20251221_180858/logs/WP52__phi2_server_grammar__t1.json
WP53,WP,phi2_server_nogrammar,1,ok,8.5919,8.5603,10,10,1,runs_server/20251221_180858/logs/WP53__phi2_server_nogrammar__t1.json
WP53,WP,phi2_server_grammar,1,ok,1.7271,1.7170,10,10,1,runs_server/20251221_180858/logs/WP53__phi2_server_grammar__t1.json
WP54,WP,phi2_server_nogrammar,1,ok,10.2710,10.2465,36,36,1,runs_server/20251221_180858/logs/WP54__phi2_server_nogrammar__t1.json
WP54,WP,phi2_server_grammar,1,ok,1.6302,1.6221,36,36,1,runs_server/20251221_180858/logs/WP54__phi2_server_grammar__t1.json
WP55,WP,phi2_server_nogrammar,1,ok,10.0081,9.9833,1,1,1,runs_server/20251221_180858/logs/WP55__phi2_server_nogrammar__t1.json
WP55,WP,phi2_server_grammar,1,ok,2.1804,2.1726,1,1,1,runs_server/20251221_180858/logs/WP55__phi2_server_grammar__t1.json
WP56,WP,phi2_server_nogrammar,1,ok,9.8025,9.7787,88,88,1,runs_server/20251221_180858/logs/WP56__phi2_server_nogrammar__t1.json
WP56,WP,phi2_server_grammar,1,ok,1.6728,1.6627,88,88,1,runs_server/20251221_180858/logs/WP56__phi2_server_grammar__t1.json
WP57,WP,phi2_server_nogrammar,1,ok,9.4108,9.3770,3,3,1,runs_server/20251221_180858/logs/WP57__phi2_server_nogrammar__t1.json
WP57,WP,phi2_server_grammar,1,ok,1.6256,1.6203,3,3,1,runs_server/20251221_180858/logs/WP57__phi2_server_grammar__t1.json
WP58,WP,phi2_server_nogrammar,1,ok,9.8496,9.8245,45,45,1,runs_server/20251221_180858/logs/WP58__phi2_server_nogrammar__t1.json
WP58,WP,phi2_server_grammar,1,ok,1.7414,1.7359,45,45,1,runs_server/20251221_180858/logs/WP58__phi2_server_grammar__t1.json
WP59,WP,phi2_server_nogrammar,1,ok,9.4317,9.4089,160,160,1,runs_server/20251221_180858/logs/WP59__phi2_server_nogrammar__t1.json
WP59,WP,phi2_server_grammar,1,ok,1.5894,1.5802,160,160,1,runs_server/20251221_180858/logs/WP59__phi2_server_grammar__t1.json
WP60,WP,phi2_server_nogrammar,1,ok,11.6538,11.6274,70,70,1,runs_server/20251221_180858/logs/WP60__phi2_server_nogrammar__t1.json
WP60,WP,phi2_server_grammar,1,ok,2.1934,2.1866,70,70,1,runs_server/20251221_180858/logs/WP60__phi2_server_grammar__t1.json
WP61,WP,phi2_server_nogrammar,1,ok,8.2351,8.2100,126,126,1,runs_server/20251221_180858/logs/WP61__phi2_server_nogrammar__t1.json
WP61,WP,phi2_server_grammar,1,ok,1.6738,1.6668,126,126,1,runs_server/20251221_180858/logs/WP61__phi2_server_grammar__t1.json
WP62,WP,phi2_server_nogrammar,1,ok,8.2391,8.2097,98,98,1,runs_server/20251221_180858/logs/WP62__phi2_server_nogrammar__t1.json
WP62,WP,phi2_server_grammar,1,ok,1.6732,1.6662,98,98,1,runs_server/20251221_180858/logs/WP62__phi2_server_grammar__t1.json
WP63,WP,phi2_server_nogrammar,1,ok,8.6923,8.6711,131,131,1,runs_server/20251221_180858/logs/WP63__phi2_server_nogrammar__t1.json
WP63,WP,phi2_server_grammar,1,ok,1.6585,1.6532,131,131,1,runs_server/20251221_180858/logs/WP63__phi2_server_grammar__t1.json
WP64,WP,phi2_server_nogrammar,1,ok,10.4460,10.4219,45,45,1,runs_server/20251221_180858/logs/WP64__phi2_server_nogrammar__t1.json
WP64,WP,phi2_server_grammar,1,ok,1.7287,1.7183,45,45,1,runs_server/20251221_180858/logs/WP64__phi2_server_grammar__t1.json
WP65,WP,phi2_server_nogrammar,1,ok,9.8058,9.7682,3,3,1,runs_server/20251221_180858/logs/WP65__phi2_server_nogrammar__t1.json
WP65,WP,phi2_server_grammar,1,ok,2.2639,2.2569,3,3,1,runs_server/20251221_180858/logs/WP65__phi2_server_grammar__t1.json
WP66,WP,phi2_server_nogrammar,1,ok,9.7102,9.6747,40,40,1,runs_server/20251221_180858/logs/WP66__phi2_server_nogrammar__t1.json
WP66,WP,phi2_server_grammar,1,ok,1.5979,1.5924,40,40,1,runs_server/20251221_180858/logs/WP66__phi2_server_grammar__t1.json
WP67,WP,phi2_server_nogrammar,1,ok,9.1927,9.1637,4,4,1,runs_server/20251221_180858/logs/WP67__phi2_server_nogrammar__t1.json
WP67,WP,phi2_server_grammar,1,ok,1.6980,1.6924,4,4,1,runs_server/20251221_180858/logs/WP67__phi2_server_grammar__t1.json
WP68,WP,phi2_server_nogrammar,1,ok,10.3203,10.2962,36,36,1,runs_server/20251221_180858/logs/WP68__phi2_server_nogrammar__t1.json
WP68,WP,phi2_server_grammar,1,ok,1.6066,1.5996,36,36,1,runs_server/20251221_180858/logs/WP68__phi2_server_grammar__t1.json
WP69,WP,phi2_server_nogrammar,1,ok,9.3358,9.3058,120,120,1,runs_server/20251221_180858/logs/WP69__phi2_server_nogrammar__t1.json
WP69,WP,phi2_server_grammar,1,ok,1.6259,1.6203,120,120,1,runs_server/20251221_180858/logs/WP69__phi2_server_grammar__t1.json
WP70,WP,phi2_server_nogrammar,1,ok,11.6722,11.6469,93,93,1,runs_server/20251221_180858/logs/WP70__phi2_server_nogrammar__t1.json
WP70,WP,phi2_server_grammar,1,ok,2.2654,2.2600,93,93,1,runs_server/20251221_180858/logs/WP70__phi2_server_grammar__t1.json
WP71,WP,phi2_server_nogrammar,1,ok,8.2380,8.2132,170,170,1,runs_server/20251221_180858/logs/WP71__phi2_server_nogrammar__t1.json
WP71,WP,phi2_server_grammar,1,ok,1.6772,1.6715,170,170,1,runs_server/20251221_180858/logs/WP71__phi2_server_grammar__t1.json
WP72,WP,phi2_server_nogrammar,1,ok,8.3532,8.3316,448,448,1,runs_server/20251221_180858/logs/WP72__phi2_server_nogrammar__t1.json
WP72,WP,phi2_server_grammar,1,ok,1.6397,1.6343,448,448,1,runs_server/20251221_180858/logs/WP72__phi2_server_grammar__t1.json
WP73,WP,phi2_server_nogrammar,1,ok,8.6302,8.6070,95,95,1,runs_server/20251221_180858/logs/WP73__phi2_server_nogrammar__t1.json
WP73,WP,phi2_server_grammar,1,ok,1.6828,1.6758,95,95,1,runs_server/20251221_180858/logs/WP73__phi2_server_grammar__t1.json
WP74,WP,phi2_server_nogrammar,1,ok,10.5884,10.5628,25,25,1,runs_server/20251221_180858/logs/WP74__phi2_server_nogrammar__t1.json
WP74,WP,phi2_server_grammar,1,ok,1.6852,1.6796,25,25,1,runs_server/20251221_180858/logs/WP74__phi2_server_grammar__t1.json
WP75,WP,phi2_server_nogrammar,1,ok,10.0949,10.0713,1,1,1,runs_server/20251221_180858/logs/WP75__phi2_server_nogrammar__t1.json
WP75,WP,phi2_server_grammar,1,ok,2.2956,2.2902,1,1,1,runs_server/20251221_180858/logs/WP75__phi2_server_grammar__t1.json
WP76,WP,phi2_server_nogrammar,1,ok,9.9401,9.9153,63,63,1,runs_server/20251221_180858/logs/WP76__phi2_server_nogrammar__t1.json
WP76,WP,phi2_server_grammar,1,ok,1.6068,1.5989,63,63,1,runs_server/20251221_180858/logs/WP76__phi2_server_grammar__t1.json
WP77,WP,phi2_server_nogrammar,1,ok,9.7315,9.7110,9,9,1,runs_server/20251221_180858/logs/WP77__phi2_server_nogrammar__t1.json
WP77,WP,phi2_server_grammar,1,ok,1.6976,1.6925,9,9,1,runs_server/20251221_180858/logs/WP77__phi2_server_grammar__t1.json
WP78,WP,phi2_server_nogrammar,1,ok,10.3008,10.2759,45,45,1,runs_server/20251221_180858/logs/WP78__phi2_server_nogrammar__t1.json
WP78,WP,phi2_server_grammar,1,ok,1.6810,1.6730,45,45,1,runs_server/20251221_180858/logs/WP78__phi2_server_grammar__t1.json
WP79,WP,phi2_server_nogrammar,1,ok,9.8274,9.7945,195,195,1,runs_server/20251221_180858/logs/WP79__phi2_server_nogrammar__t1.json
WP79,WP,phi2_server_grammar,1,ok,1.6746,1.6649,195,195,1,runs_server/20251221_180858/logs/WP79__phi2_server_grammar__t1.json
WP80,WP,phi2_server_nogrammar,1,ok,12.1723,12.1475,5,5,1,runs_server/20251221_180858/logs/WP80__phi2_server_nogrammar__t1.json
WP80,WP,phi2_server_grammar,1,ok,2.1945,2.1866,5,5,1,runs_server/20251221_180858/logs/WP80__phi2_server_grammar__t1.json
WP81,WP,phi2_server_nogrammar,1,ok,8.6830,8.6609,44,44,1,runs_server/20251221_180858/logs/WP81__phi2_server_nogrammar__t1.json
WP81,WP,phi2_server_grammar,1,ok,1.6234,1.6184,44,44,1,runs_server/20251221_180858/logs/WP81__phi2_server_grammar__t1.json
WP82,WP,phi2_server_nogrammar,1,ok,8.4164,8.3969,336,336,1,runs_server/20251221_180858/logs/WP82__phi2_server_nogrammar__t1.json
WP82,WP,phi2_server_grammar,1,ok,1.7344,1.7265,336,336,1,runs_server/20251221_180858/logs/WP82__phi2_server_grammar__t1.json
WP83,WP,phi2_server_nogrammar,1,ok,8.9058,8.8845,38,38,1,runs_server/20251221_180858/logs/WP83__phi2_server_nogrammar__t1.json
WP83,WP,phi2_server_grammar,1,ok,1.7136,1.7069,38,38,1,runs_server/20251221_180858/logs/WP83__phi2_server_grammar__t1.json
WP84,WP,phi2_server_nogrammar,1,ok,10.8382,10.8150,40,40,1,runs_server/20251221_180858/logs/WP84__phi2_server_nogrammar__t1.json
WP84,WP,phi2_server_grammar,1,ok,1.6982,1.6931,40,40,1,runs_server/20251221_180858/logs/WP84__phi2_server_grammar__t1.json
WP85,WP,phi2_server_nogrammar,1,ok,8.8014,8.7800,6,6,1,runs_server/20251221_180858/logs/WP85__phi2_server_nogrammar__t1.json
WP85,WP,phi2_server_grammar,1,ok,2.2208,2.2140,6,6,1,runs_server/20251221_180858/logs/WP85__phi2_server_grammar__t1.json
WP86,WP,phi2_server_nogrammar,1,ok,9.9158,9.8810,12,12,1,runs_server/20251221_180858/logs/WP86__phi2_server_nogrammar__t1.json
WP86,WP,phi2_server_grammar,1,ok,1.6744,1.6692,12,12,1,runs_server/20251221_180858/logs/WP86__phi2_server_grammar__t1.json
WP87,WP,phi2_server_nogrammar,1,ok,9.5151,9.4925,9,9,1,runs_server/20251221_180858/logs/WP87__phi2_server_nogrammar__t1.json
WP87,WP,phi2_server_grammar,1,ok,1.6875,1.6795,9,9,1,runs_server/20251221_180858/logs/WP87__phi2_server_grammar__t1.json
WP88,WP,phi2_server_nogrammar,1,ok,10.5996,10.5774,60,90,0,runs_server/20251221_180858/logs/WP88__phi2_server_nogrammar__t1.json
WP88,WP,phi2_server_grammar,1,ok,1.5543,1.5490,60,90,0,runs_server/20251221_180858/logs/WP88__phi2_server_grammar__t1.json
