id,category,trial,route,expected_answer,final_output,correct,error_code,latency_wall_s,verify_used,verify_pass,fallback_used,sym_expr,sym_output,log_file
AR01,AR,1,LLM+VERIFY_PASS,408,408,1,E0,6.0060,1,1,0,17 * 24,408,runs_hybrid_v2/20251221_193934/logs/AR01__AR__t1.json
AR02,AR,1,LLM+VERIFY_PASS,266,266,1,E0,6.3209,1,1,0,38 * 7,266,runs_hybrid_v2/20251221_193934/logs/AR02__AR__t1.json
AR03,AR,1,LLM+VERIFY_PASS,784,784,1,E0,6.9530,1,1,0,56 * 14,784,runs_hybrid_v2/20251221_193934/logs/AR03__AR__t1.json
AR04,AR,1,LLM+VERIFY_PASS,613,613,1,E0,2.3145,1,1,0,1000 - 387,613,runs_hybrid_v2/20251221_193934/logs/AR04__AR__t1.json
AR05,AR,1,LLM+VERIFY_PASS,25,25,1,E0,1.6585,1,1,0,625 / 25,25,runs_hybrid_v2/20251221_193934/logs/AR05__AR__t1.json
AR06,AR,1,LLM+VERIFY_PASS,12,12,1,E0,1.7392,1,1,0,144 / 12,12,runs_hybrid_v2/20251221_193934/logs/AR06__AR__t1.json
AR07,AR,1,LLM+VERIFY_PASS,225,225,1,E0,1.6821,1,1,0,15^2,225,runs_hybrid_v2/20251221_193934/logs/AR07__AR__t1.json
AR08,AR,1,LLM+VERIFY_PASS,729,729,1,E0,2.2768,1,1,0,9^3,729,runs_hybrid_v2/20251221_193934/logs/AR08__AR__t1.json
AR09,AR,1,LLM+VERIFY_FAIL_FALLBACK_SYM,20,20,1,E0,7.9210,1,0,1,(45 + 55) / 5,20,runs_hybrid_v2/20251221_193934/logs/AR09__AR__t1.json
AR10,AR,1,LLM+VERIFY_FAIL_FALLBACK_SYM,18,18,1,E0,2.2719,1,0,1,81 - 9*7,18,runs_hybrid_v2/20251221_193934/logs/AR10__AR__t1.json
ALG01,ALG,1,LLM+VERIFY_PASS,7,7,1,E0,8.0373,1,1,0,x + 5 = 12,7,runs_hybrid_v2/20251221_193934/logs/ALG01__ALG__t1.json
ALG02,ALG,1,LLM+VERIFY_PASS,7,7,1,E0,7.8064,1,1,0,3x = 21,7,runs_hybrid_v2/20251221_193934/logs/ALG02__ALG__t1.json
ALG03,ALG,1,LLM+VERIFY_PASS,4,4,1,E0,7.4231,1,1,0,2x + 3 = 11,4,runs_hybrid_v2/20251221_193934/logs/ALG03__ALG__t1.json
ALG04,ALG,1,LLM+VERIFY_PASS,24,24,1,E0,8.2116,1,1,0,x/4 = 6,24,runs_hybrid_v2/20251221_193934/logs/ALG04__ALG__t1.json
ALG05,ALG,1,LLM+VERIFY_PASS,2,2,1,E0,8.5903,1,1,0,5x - 10 = 0,2,runs_hybrid_v2/20251221_193934/logs/ALG05__ALG__t1.json
ALG06,ALG,1,LLM+VERIFY_PASS,13,13,1,E0,8.3591,1,1,0,7 + x = 20,13,runs_hybrid_v2/20251221_193934/logs/ALG06__ALG__t1.json
ALG07,ALG,1,LLM+VERIFY_PASS,2,2,1,E0,7.7113,1,1,0,9x + 1 = 19,2,runs_hybrid_v2/20251221_193934/logs/ALG07__ALG__t1.json
ALG08,ALG,1,LLM+VERIFY_PASS,5,5,1,E0,8.2318,1,1,0,x - 8 = -3,5,runs_hybrid_v2/20251221_193934/logs/ALG08__ALG__t1.json
ALG09,ALG,1,LLM+VERIFY_FAIL_FALLBACK_SYM,7,7,1,E0,8.3742,1,0,1,4(x - 2) = 20,7,runs_hybrid_v2/20251221_193934/logs/ALG09__ALG__t1.json
ALG10,ALG,1,LLM+VERIFY_PASS,16,16,1,E0,9.2650,1,1,0,(x/2) + 3 = 11,16,runs_hybrid_v2/20251221_193934/logs/ALG10__ALG__t1.json
LOG01,LOG,1,LLM_LOG_SELFCONSIST,Yes,Yes,1,E0,9.0266,0,,0,,,runs_hybrid_v2/20251221_193934/logs/LOG01__LOG__t1.json
LOG02,LOG,1,LLM_LOG_SELFCONSIST,No,Yes,0,E2,8.9267,0,,0,,,runs_hybrid_v2/20251221_193934/logs/LOG02__LOG__t1.json
LOG03,LOG,1,LLM_LOG_SELFCONSIST,No,Yes,0,E2,10.4740,0,,0,,,runs_hybrid_v2/20251221_193934/logs/LOG03__LOG__t1.json
LOG04,LOG,1,LLM_LOG_SELFCONSIST,Yes,Yes,1,E0,8.8302,0,,0,,,runs_hybrid_v2/20251221_193934/logs/LOG04__LOG__t1.json
LOG05,LOG,1,LLM_LOG_SELFCONSIST,Yes,Yes,1,E0,9.1435,0,,0,,,runs_hybrid_v2/20251221_193934/logs/LOG05__LOG__t1.json
LOG06,LOG,1,LLM_LOG_SELFCONSIST,Yes,Yes,1,E0,9.2198,0,,0,,,runs_hybrid_v2/20251221_193934/logs/LOG06__LOG__t1.json
LOG07,LOG,1,LLM_LOG_SELFCONSIST,No,No,1,E0,9.1839,0,,0,,,runs_hybrid_v2/20251221_193934/logs/LOG07__LOG__t1.json
LOG08,LOG,1,LLM_LOG_SELFCONSIST,No,Yes,0,E2,9.4571,0,,0,,,runs_hybrid_v2/20251221_193934/logs/LOG08__LOG__t1.json
LOG09,LOG,1,LLM_LOG_SELFCONSIST,No,No,1,E0,9.0581,0,,0,,,runs_hybrid_v2/20251221_193934/logs/LOG09__LOG__t1.json
LOG10,LOG,1,LLM_LOG_SELFCONSIST,Yes,No,0,E2,9.0614,0,,0,,,runs_hybrid_v2/20251221_193934/logs/LOG10__LOG__t1.json
WP01,WP,1,LLM+VERIFY_PASS,48,48,1,E0,1.6474,1,1,0,12*4,48,runs_hybrid_v2/20251221_193934/logs/WP01__WP__t1.json
WP02,WP,1,LLM+VERIFY_PASS,40,40,1,E0,7.5702,1,1,0,8*5,40,runs_hybrid_v2/20251221_193934/logs/WP02__WP__t1.json
WP03,WP,1,LLM+VERIFY_PASS,18,18,1,E0,9.3254,1,1,0,30-12,18,runs_hybrid_v2/20251221_193934/logs/WP03__WP__t1.json
WP04,WP,1,LLM+VERIFY_PASS,30,30,1,E0,1.7843,1,1,0,60/2,30,runs_hybrid_v2/20251221_193934/logs/WP04__WP__t1.json
WP05,WP,1,LLM+VERIFY_PASS,2,2,1,E0,10.3710,1,1,0,6/3,2,runs_hybrid_v2/20251221_193934/logs/WP05__WP__t1.json
WP06,WP,1,LLM+VERIFY_PASS,10,10,1,E0,10.3248,1,1,0,2*5,10,runs_hybrid_v2/20251221_193934/logs/WP06__WP__t1.json
WP07,WP,1,LLM+VERIFY_PASS,4,4,1,E0,9.6849,1,1,0,24/6,4,runs_hybrid_v2/20251221_193934/logs/WP07__WP__t1.json
WP08,WP,1,LLM+VERIFY_PASS,35,35,1,E0,10.6270,1,1,0,50.0*(1-(30.0/100)),35,runs_hybrid_v2/20251221_193934/logs/WP08__WP__t1.json
WP09,WP,1,LLM+VERIFY_PASS,30,30,1,E0,1.7355,1,1,0,90/3,30,runs_hybrid_v2/20251221_193934/logs/WP09__WP__t1.json
WP10,WP,1,LLM+VERIFY_PASS,120,120,1,E0,10.0610,1,1,0,15*8,120,runs_hybrid_v2/20251221_193934/logs/WP10__WP__t1.json
AR11,AR,1,LLM+VERIFY_FAIL_FALLBACK_SYM,180,180,1,E0,7.6236,1,0,1,(16 + 44) * 3,180,runs_hybrid_v2/20251221_193934/logs/AR11__AR__t1.json
AR12,AR,1,LLM+VERIFY_FAIL_FALLBACK_SYM,227,227,1,E0,3.9326,1,0,1,443 - 36*6,227,runs_hybrid_v2/20251221_193934/logs/AR12__AR__t1.json
AR13,AR,1,LLM+VERIFY_PASS,23,23,1,E0,1.7158,1,1,0,46 / 2,23,runs_hybrid_v2/20251221_193934/logs/AR13__AR__t1.json
AR14,AR,1,LLM+VERIFY_FAIL_FALLBACK_SYM,4524,4524,1,E0,2.2947,1,0,1,58 * 78,4524,runs_hybrid_v2/20251221_193934/logs/AR14__AR__t1.json
AR15,AR,1,LLM+VERIFY_FAIL_FALLBACK_SYM,931,931,1,E0,8.6478,1,0,1,(81 * 7) + (52 * 7),931,runs_hybrid_v2/20251221_193934/logs/AR15__AR__t1.json
AR16,AR,1,LLM+VERIFY_PASS,25,25,1,E0,1.6418,1,1,0,5^2,25,runs_hybrid_v2/20251221_193934/logs/AR16__AR__t1.json
AR17,AR,1,LLM+VERIFY_PASS,90,90,1,E0,7.9308,1,1,0,(63 / 7) * 10,90,runs_hybrid_v2/20251221_193934/logs/AR17__AR__t1.json
AR18,AR,1,LLM+VERIFY_FAIL_FALLBACK_SYM,499,499,1,E0,8.0565,1,0,1,(441 + 99) - 41,499,runs_hybrid_v2/20251221_193934/logs/AR18__AR__t1.json
AR19,AR,1,LLM+VERIFY_PASS,8,8,1,E0,7.4760,1,1,0,(32 * 2) / 8,8,runs_hybrid_v2/20251221_193934/logs/AR19__AR__t1.json
AR20,AR,1,LLM+VERIFY_ERROR_KEEP_LLM,130,130,1,E0,6.7237,1,,0,,,runs_hybrid_v2/20251221_193934/logs/AR20__AR__t1.json
AR21,AR,1,LLM+VERIFY_FAIL_FALLBACK_SYM,152,152,1,E0,7.4025,1,0,1,(58 + 18) * 2,152,runs_hybrid_v2/20251221_193934/logs/AR21__AR__t1.json
AR22,AR,1,LLM+VERIFY_FAIL_FALLBACK_SYM,97,97,1,E0,2.2301,1,0,1,211 - 38*3,97,runs_hybrid_v2/20251221_193934/logs/AR22__AR__t1.json
AR23,AR,1,LLM+VERIFY_PASS,10,10,1,E0,1.7842,1,1,0,30 / 3,10,runs_hybrid_v2/20251221_193934/logs/AR23__AR__t1.json
AR24,AR,1,LLM+VERIFY_PASS,2660,2660,1,E0,2.1647,1,1,0,95 * 28,2660,runs_hybrid_v2/20251221_193934/logs/AR24__AR__t1.json
AR25,AR,1,LLM+VERIFY_FAIL_FALLBACK_SYM,228,228,1,E0,1.7388,1,0,1,(26 * 6) + (12 * 6),228,runs_hybrid_v2/20251221_193934/logs/AR25__AR__t1.json
AR26,AR,1,LLM+VERIFY_PASS,14641,14641,1,E0,2.2290,1,1,0,11^4,14641,runs_hybrid_v2/20251221_193934/logs/AR26__AR__t1.json
AR27,AR,1,LLM+VERIFY_FAIL_FALLBACK_SYM,225,225,1,E0,2.2284,1,0,1,(150 / 6) * 9,225,runs_hybrid_v2/20251221_193934/logs/AR27__AR__t1.json
AR28,AR,1,LLM+VERIFY_FAIL_FALLBACK_SYM,922,922,1,E0,2.2361,1,0,1,(957 + 14) - 49,922,runs_hybrid_v2/20251221_193934/logs/AR28__AR__t1.json
AR29,AR,1,LLM+VERIFY_PASS,99,99,1,E0,6.7176,1,1,0,(55 * 9) / 5,99,runs_hybrid_v2/20251221_193934/logs/AR29__AR__t1.json
AR30,AR,1,LLM+VERIFY_ERROR_KEEP_LLM,8,8,1,E0,6.7619,1,,0,,,runs_hybrid_v2/20251221_193934/logs/AR30__AR__t1.json
AR31,AR,1,LLM+VERIFY_FAIL_FALLBACK_SYM,1113,1113,1,E0,2.3088,1,0,1,(77 + 82) * 7,1113,runs_hybrid_v2/20251221_193934/logs/AR31__AR__t1.json
AR32,AR,1,LLM+VERIFY_FAIL_FALLBACK_SYM,-224,-224,1,E0,2.2882,1,0,1,56 - 35*8,-224,runs_hybrid_v2/20251221_193934/logs/AR32__AR__t1.json
AR33,AR,1,LLM+VERIFY_PASS,19,19,1,E0,1.6121,1,1,0,190 / 10,19,runs_hybrid_v2/20251221_193934/logs/AR33__AR__t1.json
AR34,AR,1,LLM+VERIFY_FAIL_FALLBACK_SYM,8645,8645,1,E0,2.3304,1,0,1,91 * 95,8645,runs_hybrid_v2/20251221_193934/logs/AR34__AR__t1.json
AR35,AR,1,LLM+VERIFY_FAIL_FALLBACK_SYM,1264,1264,1,E0,2.2261,1,0,1,(86 * 8) + (72 * 8),1264,runs_hybrid_v2/20251221_193934/logs/AR35__AR__t1.json
AR36,AR,1,LLM+VERIFY_PASS,10000,10000,1,E0,5.7500,1,1,0,10^4,10000,runs_hybrid_v2/20251221_193934/logs/AR36__AR__t1.json
AR37,AR,1,LLM+VERIFY_PASS,27,27,1,E0,7.9825,1,1,0,(36 / 4) * 3,27,runs_hybrid_v2/20251221_193934/logs/AR37__AR__t1.json
AR38,AR,1,LLM+VERIFY_FAIL_FALLBACK_SYM,649,649,1,E0,2.3439,1,0,1,(598 + 94) - 43,649,runs_hybrid_v2/20251221_193934/logs/AR38__AR__t1.json
AR39,AR,1,LLM+VERIFY_PASS,31,31,1,E0,7.9023,1,1,0,(31 * 7) / 7,31,runs_hybrid_v2/20251221_193934/logs/AR39__AR__t1.json
AR40,AR,1,LLM+VERIFY_ERROR_KEEP_LLM,41,41,1,E0,6.9296,1,,0,,,runs_hybrid_v2/20251221_193934/logs/AR40__AR__t1.json
AR41,AR,1,LLM+VERIFY_FAIL_FALLBACK_SYM,696,696,1,E0,2.3144,1,0,1,(19 + 68) * 8,696,runs_hybrid_v2/20251221_193934/logs/AR41__AR__t1.json
AR42,AR,1,LLM+VERIFY_FAIL_FALLBACK_SYM,281,281,1,E0,1.6690,1,0,1,343 - 31*2,281,runs_hybrid_v2/20251221_193934/logs/AR42__AR__t1.json
AR43,AR,1,LLM+VERIFY_PASS,22,22,1,E0,1.7093,1,1,0,66 / 3,22,runs_hybrid_v2/20251221_193934/logs/AR43__AR__t1.json
AR44,AR,1,LLM+VERIFY_PASS,5040,5040,1,E0,2.1898,1,1,0,90 * 56,5040,runs_hybrid_v2/20251221_193934/logs/AR44__AR__t1.json
AR45,AR,1,LLM+VERIFY_FAIL_FALLBACK_SYM,330,330,1,E0,1.6831,1,0,1,(11 * 5) + (55 * 5),330,runs_hybrid_v2/20251221_193934/logs/AR45__AR__t1.json
AR46,AR,1,LLM+VERIFY_PASS,14641,14641,1,E0,2.2336,1,1,0,11^4,14641,runs_hybrid_v2/20251221_193934/logs/AR46__AR__t1.json
AR47,AR,1,LLM+VERIFY_FAIL_FALLBACK_SYM,474,474,1,E0,2.2255,1,0,1,(158 / 2) * 6,474,runs_hybrid_v2/20251221_193934/logs/AR47__AR__t1.json
AR48,AR,1,LLM+VERIFY_FAIL_FALLBACK_SYM,657,657,1,E0,2.2646,1,0,1,(606 + 90) - 39,657,runs_hybrid_v2/20251221_193934/logs/AR48__AR__t1.json
AR49,AR,1,LLM+VERIFY_PASS,180,180,1,E0,6.9779,1,1,0,(80 * 9) / 4,180,runs_hybrid_v2/20251221_193934/logs/AR49__AR__t1.json
AR50,AR,1,LLM+VERIFY_ERROR_KEEP_LLM,98,108,0,E7,6.9448,1,,0,,,runs_hybrid_v2/20251221_193934/logs/AR50__AR__t1.json
AR51,AR,1,LLM+VERIFY_FAIL_FALLBACK_SYM,1116,1116,1,E0,2.2620,1,0,1,(66 + 58) * 9,1116,runs_hybrid_v2/20251221_193934/logs/AR51__AR__t1.json
AR52,AR,1,LLM+VERIFY_FAIL_FALLBACK_SYM,32,32,1,E0,2.2462,1,0,1,72 - 10*4,32,runs_hybrid_v2/20251221_193934/logs/AR52__AR__t1.json
AR53,AR,1,LLM+VERIFY_PASS,27,27,1,E0,1.7269,1,1,0,135 / 5,27,runs_hybrid_v2/20251221_193934/logs/AR53__AR__t1.json
AR54,AR,1,LLM+VERIFY_PASS,504,504,1,E0,1.7113,1,1,0,12 * 42,504,runs_hybrid_v2/20251221_193934/logs/AR54__AR__t1.json
AR55,AR,1,LLM+VERIFY_FAIL_FALLBACK_SYM,912,912,1,E0,8.5854,1,0,1,(55 * 6) + (97 * 6),912,runs_hybrid_v2/20251221_193934/logs/AR55__AR__t1.json
AR56,AR,1,LLM+VERIFY_PASS,14641,14641,1,E0,2.3027,1,1,0,11^4,14641,runs_hybrid_v2/20251221_193934/logs/AR56__AR__t1.json
AR57,AR,1,LLM+VERIFY_FAIL_FALLBACK_SYM,204,204,1,E0,8.1863,1,0,1,(136 / 2) * 3,204,runs_hybrid_v2/20251221_193934/logs/AR57__AR__t1.json
AR58,AR,1,LLM+VERIFY_FAIL_FALLBACK_SYM,675,675,1,E0,2.3235,1,0,1,(732 + 18) - 75,675,runs_hybrid_v2/20251221_193934/logs/AR58__AR__t1.json
AR59,AR,1,LLM+VERIFY_PASS,55,55,1,E0,7.1673,1,1,0,(55 * 3) / 3,55,runs_hybrid_v2/20251221_193934/logs/AR59__AR__t1.json
AR60,AR,1,LLM+VERIFY_ERROR_KEEP_LLM,108,108,1,E0,7.0284,1,,0,,,runs_hybrid_v2/20251221_193934/logs/AR60__AR__t1.json
AR61,AR,1,LLM+VERIFY_FAIL_FALLBACK_SYM,408,408,1,E0,2.3319,1,0,1,(78 + 58) * 3,408,runs_hybrid_v2/20251221_193934/logs/AR61__AR__t1.json
AR62,AR,1,LLM+VERIFY_FAIL_FALLBACK_SYM,259,259,1,E0,1.6397,1,0,1,329 - 35*2,259,runs_hybrid_v2/20251221_193934/logs/AR62__AR__t1.json
AR63,AR,1,LLM+VERIFY_PASS,17,17,1,E0,1.8588,1,1,0,102 / 6,17,runs_hybrid_v2/20251221_193934/logs/AR63__AR__t1.json
AR64,AR,1,LLM+VERIFY_PASS,980,980,1,E0,1.7077,1,1,0,70 * 14,980,runs_hybrid_v2/20251221_193934/logs/AR64__AR__t1.json
AR65,AR,1,LLM+VERIFY_FAIL_FALLBACK_SYM,1064,1064,1,E0,8.8007,1,0,1,(81 * 8) + (52 * 8),1064,runs_hybrid_v2/20251221_193934/logs/AR65__AR__t1.json
AR66,AR,1,LLM+VERIFY_PASS,100,100,1,E0,5.8615,1,1,0,10^2,100,runs_hybrid_v2/20251221_193934/logs/AR66__AR__t1.json
AR67,AR,1,LLM+VERIFY_FAIL_FALLBACK_SYM,384,384,1,E0,1.7126,1,0,1,(192 / 4) * 8,384,runs_hybrid_v2/20251221_193934/logs/AR67__AR__t1.json
AR68,AR,1,LLM+VERIFY_FAIL_FALLBACK_SYM,233,233,1,E0,1.7359,1,0,1,(165 + 96) - 28,233,runs_hybrid_v2/20251221_193934/logs/AR68__AR__t1.json
AR69,AR,1,LLM+VERIFY_PASS,95,95,1,E0,7.0475,1,1,0,(57 * 5) / 3,95,runs_hybrid_v2/20251221_193934/logs/AR69__AR__t1.json
AR70,AR,1,LLM+VERIFY_ERROR_KEEP_LLM,146,146,1,E0,6.7617,1,,0,,,runs_hybrid_v2/20251221_193934/logs/AR70__AR__t1.json
AR71,AR,1,LLM+VERIFY_FAIL_FALLBACK_SYM,810,810,1,E0,7.7135,1,0,1,(76 + 59) * 6,810,runs_hybrid_v2/20251221_193934/logs/AR71__AR__t1.json
AR72,AR,1,LLM+VERIFY_FAIL_FALLBACK_SYM,-100,-100,1,E0,2.3307,1,0,1,124 - 28*8,-100,runs_hybrid_v2/20251221_193934/logs/AR72__AR__t1.json
AR73,AR,1,LLM+VERIFY_PASS,28,28,1,E0,1.6933,1,1,0,112 / 4,28,runs_hybrid_v2/20251221_193934/logs/AR73__AR__t1.json
AR74,AR,1,LLM+VERIFY_PASS,4134,4134,1,E0,2.1639,1,1,0,78 * 53,4134,runs_hybrid_v2/20251221_193934/logs/AR74__AR__t1.json
AR75,AR,1,LLM+VERIFY_FAIL_FALLBACK_SYM,404,404,1,E0,8.4251,1,0,1,(76 * 4) + (25 * 4),404,runs_hybrid_v2/20251221_193934/logs/AR75__AR__t1.json
AR76,AR,1,LLM+VERIFY_PASS,2744,2744,1,E0,2.2303,1,1,0,14^3,2744,runs_hybrid_v2/20251221_193934/logs/AR76__AR__t1.json
AR77,AR,1,LLM+VERIFY_FAIL_FALLBACK_SYM,280,280,1,E0,1.7321,1,0,1,(140 / 2) * 4,280,runs_hybrid_v2/20251221_193934/logs/AR77__AR__t1.json
AR78,AR,1,LLM+VERIFY_FAIL_FALLBACK_SYM,648,648,1,E0,2.2174,1,0,1,(565 + 95) - 12,648,runs_hybrid_v2/20251221_193934/logs/AR78__AR__t1.json
AR79,AR,1,LLM+VERIFY_PASS,54,54,1,E0,1.7685,1,1,0,(54 * 9) / 9,54,runs_hybrid_v2/20251221_193934/logs/AR79__AR__t1.json
AR80,AR,1,LLM+VERIFY_ERROR_KEEP_LLM,32,32,1,E0,6.8703,1,,0,,,runs_hybrid_v2/20251221_193934/logs/AR80__AR__t1.json
AR81,AR,1,LLM+VERIFY_FAIL_FALLBACK_SYM,301,301,1,E0,2.2694,1,0,1,(13 + 30) * 7,301,runs_hybrid_v2/20251221_193934/logs/AR81__AR__t1.json
AR82,AR,1,LLM+VERIFY_FAIL_FALLBACK_SYM,324,324,1,E0,1.6938,1,0,1,496 - 43*4,324,runs_hybrid_v2/20251221_193934/logs/AR82__AR__t1.json
AR83,AR,1,LLM+VERIFY_PASS,10,10,1,E0,1.6492,1,1,0,100 / 10,10,runs_hybrid_v2/20251221_193934/logs/AR83__AR__t1.json
AR84,AR,1,LLM+VERIFY_FAIL_FALLBACK_SYM,1817,1817,1,E0,2.1335,1,0,1,23 * 79,1817,runs_hybrid_v2/20251221_193934/logs/AR84__AR__t1.json
AR85,AR,1,LLM+VERIFY_FAIL_FALLBACK_SYM,665,665,1,E0,8.5374,1,0,1,(57 * 7) + (38 * 7),665,runs_hybrid_v2/20251221_193934/logs/AR85__AR__t1.json
AR86,AR,1,LLM+VERIFY_PASS,216,216,1,E0,1.7163,1,1,0,6^3,216,runs_hybrid_v2/20251221_193934/logs/AR86__AR__t1.json
AR87,AR,1,LLM+VERIFY_PASS,155,155,1,E0,1.7578,1,1,0,(155 / 5) * 5,155,runs_hybrid_v2/20251221_193934/logs/AR87__AR__t1.json
AR88,AR,1,LLM+VERIFY_FAIL_FALLBACK_SYM,412,412,1,E0,2.3340,1,0,1,(429 + 43) - 60,412,runs_hybrid_v2/20251221_193934/logs/AR88__AR__t1.json
AR89,AR,1,LLM+VERIFY_PASS,9,9,1,E0,1.7477,1,1,0,(15 * 3) / 5,9,runs_hybrid_v2/20251221_193934/logs/AR89__AR__t1.json
AR90,AR,1,LLM+VERIFY_ERROR_KEEP_LLM,78,78,1,E0,6.9668,1,,0,,,runs_hybrid_v2/20251221_193934/logs/AR90__AR__t1.json
AR91,AR,1,LLM+VERIFY_FAIL_FALLBACK_SYM,276,276,1,E0,1.7365,1,0,1,(12 + 34) * 6,276,runs_hybrid_v2/20251221_193934/logs/AR91__AR__t1.json
AR92,AR,1,LLM+VERIFY_FAIL_FALLBACK_SYM,267,267,1,E0,1.7490,1,0,1,339 - 24*3,267,runs_hybrid_v2/20251221_193934/logs/AR92__AR__t1.json
AR93,AR,1,LLM+VERIFY_PASS,24,24,1,E0,1.7477,1,1,0,168 / 7,24,runs_hybrid_v2/20251221_193934/logs/AR93__AR__t1.json
AR94,AR,1,LLM+VERIFY_PASS,1060,1060,1,E0,2.1822,1,1,0,20 * 53,1060,runs_hybrid_v2/20251221_193934/logs/AR94__AR__t1.json
AR95,AR,1,LLM+VERIFY_FAIL_FALLBACK_SYM,632,632,1,E0,8.6062,1,0,1,(80 * 4) + (78 * 4),632,runs_hybrid_v2/20251221_193934/logs/AR95__AR__t1.json
AR96,AR,1,LLM+VERIFY_PASS,169,169,1,E0,1.7283,1,1,0,13^2,169,runs_hybrid_v2/20251221_193934/logs/AR96__AR__t1.json
AR97,AR,1,LLM+VERIFY_PASS,136,136,1,E0,1.7495,1,1,0,(153 / 9) * 8,136,runs_hybrid_v2/20251221_193934/logs/AR97__AR__t1.json
AR98,AR,1,LLM+VERIFY_FAIL_FALLBACK_SYM,866,866,1,E0,2.2693,1,0,1,(895 + 13) - 42,866,runs_hybrid_v2/20251221_193934/logs/AR98__AR__t1.json
AR99,AR,1,LLM+VERIFY_FAIL_FALLBACK_SYM,108,108,1,E0,2.3287,1,0,1,(84 * 9) / 7,108,runs_hybrid_v2/20251221_193934/logs/AR99__AR__t1.json
AR100,AR,1,LLM+VERIFY_ERROR_KEEP_LLM,44,44,1,E0,6.9723,1,,0,,,runs_hybrid_v2/20251221_193934/logs/AR100__AR__t1.json
ALG11,ALG,1,LLM+VERIFY_PASS,9,9,1,E0,8.2399,1,1,0,9x + -3 = 78,9,runs_hybrid_v2/20251221_193934/logs/ALG11__ALG__t1.json
ALG12,ALG,1,LLM+VERIFY_PASS,-18,-18,1,E0,8.9647,1,1,0,8(x + 9) = -72,-18,runs_hybrid_v2/20251221_193934/logs/ALG12__ALG__t1.json
ALG13,ALG,1,LLM+VERIFY_PASS,10,10,1,E0,8.5890,1,1,0,(x + 0)/10 = 1,10,runs_hybrid_v2/20251221_193934/logs/ALG13__ALG__t1.json
ALG14,ALG,1,LLM+VERIFY_PASS,30,30,1,E0,8.0540,1,1,0,x/3 = 10,30,runs_hybrid_v2/20251221_193934/logs/ALG14__ALG__t1.json
ALG15,ALG,1,LLM+VERIFY_PASS,9,9,1,E0,6.9122,1,1,0,3x - (x - 5) = 23,9,runs_hybrid_v2/20251221_193934/logs/ALG15__ALG__t1.json
ALG16,ALG,1,LLM+VERIFY_PASS,-4,-4,1,E0,8.9278,1,1,0,2x + -21 = -29,-4,runs_hybrid_v2/20251221_193934/logs/ALG16__ALG__t1.json
ALG17,ALG,1,LLM+VERIFY_FAIL_FALLBACK_SYM,-8,-8,1,E0,9.6765,1,0,1,4(x + -5) = -52,-8,runs_hybrid_v2/20251221_193934/logs/ALG17__ALG__t1.json
ALG18,ALG,1,LLM+VERIFY_FAIL_FALLBACK_SYM,13,13,1,E0,8.4348,1,0,1,(x + 19)/8 = 4,13,runs_hybrid_v2/20251221_193934/logs/ALG18__ALG__t1.json
ALG19,ALG,1,LLM+VERIFY_PASS,180,180,1,E0,7.7127,1,1,0,x/12 = 15,180,runs_hybrid_v2/20251221_193934/logs/ALG19__ALG__t1.json
ALG20,ALG,1,LLM+VERIFY_PASS,10,10,1,E0,6.7175,1,1,0,3x - (x - 5) = 25,10,runs_hybrid_v2/20251221_193934/logs/ALG20__ALG__t1.json
ALG21,ALG,1,LLM+VERIFY_FAIL_FALLBACK_SYM,-16,-16,1,E0,9.3737,1,0,1,7x + 6 = -106,-16,runs_hybrid_v2/20251221_193934/logs/ALG21__ALG__t1.json
ALG22,ALG,1,LLM+VERIFY_PASS,-18,-18,1,E0,10.1030,1,1,0,10(x + 1) = -170,-18,runs_hybrid_v2/20251221_193934/logs/ALG22__ALG__t1.json
ALG23,ALG,1,LLM+VERIFY_FAIL_FALLBACK_SYM,2,2,1,E0,9.7285,1,0,1,(x + -8)/6 = -1,2,runs_hybrid_v2/20251221_193934/logs/ALG23__ALG__t1.json
ALG24,ALG,1,LLM+VERIFY_PASS,32,32,1,E0,7.4885,1,1,0,x/4 = 8,32,runs_hybrid_v2/20251221_193934/logs/ALG24__ALG__t1.json
ALG25,ALG,1,LLM+VERIFY_FAIL_FALLBACK_SYM,-12,-12,1,E0,7.7525,1,0,1,3x - (x - 5) = -19,-12,runs_hybrid_v2/20251221_193934/logs/ALG25__ALG__t1.json
ALG26,ALG,1,LLM+VERIFY_PASS,20,20,1,E0,7.4523,1,1,0,12x + -7 = 233,20,runs_hybrid_v2/20251221_193934/logs/ALG26__ALG__t1.json
ALG27,ALG,1,LLM+VERIFY_FAIL_FALLBACK_SYM,-19,-19,1,E0,10.0053,1,0,1,7(x + 0) = -133,-19,runs_hybrid_v2/20251221_193934/logs/ALG27__ALG__t1.json
ALG28,ALG,1,LLM+VERIFY_FAIL_FALLBACK_SYM,1,1,1,E0,8.2987,1,0,1,(x + 17)/6 = 3,1,runs_hybrid_v2/20251221_193934/logs/ALG28__ALG__t1.json
ALG29,ALG,1,LLM+VERIFY_PASS,33,33,1,E0,7.6182,1,1,0,x/3 = 11,33,runs_hybrid_v2/20251221_193934/logs/ALG29__ALG__t1.json
ALG30,ALG,1,LLM+VERIFY_FAIL_FALLBACK_SYM,15,15,1,E0,6.8076,1,0,1,3x - (x - 5) = 35,15,runs_hybrid_v2/20251221_193934/logs/ALG30__ALG__t1.json
ALG31,ALG,1,LLM+VERIFY_PASS,9,9,1,E0,7.5230,1,1,0,11x + 10 = 109,9,runs_hybrid_v2/20251221_193934/logs/ALG31__ALG__t1.json
ALG32,ALG,1,LLM+VERIFY_FAIL_FALLBACK_SYM,9,9,1,E0,8.2954,1,0,1,2(x + -3) = 12,9,runs_hybrid_v2/20251221_193934/logs/ALG32__ALG__t1.json
ALG33,ALG,1,LLM+VERIFY_FAIL_FALLBACK_SYM,-14,-14,1,E0,9.7599,1,0,1,(x + -13)/9 = -3,-14,runs_hybrid_v2/20251221_193934/logs/ALG33__ALG__t1.json
ALG34,ALG,1,LLM+VERIFY_PASS,-35,-35,1,E0,8.6103,1,1,0,x/5 = -7,-35,runs_hybrid_v2/20251221_193934/logs/ALG34__ALG__t1.json
ALG35,ALG,1,LLM+VERIFY_FAIL_FALLBACK_SYM,-3,-3,1,E0,7.5545,1,0,1,3x - (x - 5) = -1,-3,runs_hybrid_v2/20251221_193934/logs/ALG35__ALG__t1.json
ALG36,ALG,1,LLM+VERIFY_PASS,13,13,1,E0,7.6138,1,1,0,11x + 19 = 162,13,runs_hybrid_v2/20251221_193934/logs/ALG36__ALG__t1.json
ALG37,ALG,1,LLM+VERIFY_PASS,14,14,1,E0,8.0050,1,1,0,4(x + 0) = 56,14,runs_hybrid_v2/20251221_193934/logs/ALG37__ALG__t1.json
ALG38,ALG,1,LLM+VERIFY_PASS,-11,-11,1,E0,9.5455,1,1,0,(x + -9)/4 = -5,-11,runs_hybrid_v2/20251221_193934/logs/ALG38__ALG__t1.json
ALG39,ALG,1,LLM+VERIFY_PASS,-6,-6,1,E0,8.4705,1,1,0,x/6 = -1,-6,runs_hybrid_v2/20251221_193934/logs/ALG39__ALG__t1.json
ALG40,ALG,1,LLM+VERIFY_PASS,9,9,1,E0,6.8425,1,1,0,3x - (x - 5) = 23,9,runs_hybrid_v2/20251221_193934/logs/ALG40__ALG__t1.json
ALG41,ALG,1,LLM+VERIFY_FAIL_FALLBACK_SYM,-9,-9,1,E0,9.9019,1,0,1,10x + -30 = -120,-9,runs_hybrid_v2/20251221_193934/logs/ALG41__ALG__t1.json
ALG42,ALG,1,LLM+VERIFY_FAIL_FALLBACK_SYM,-19,-19,1,E0,8.9165,1,0,1,2(x + -10) = -58,-19,runs_hybrid_v2/20251221_193934/logs/ALG42__ALG__t1.json
ALG43,ALG,1,LLM+VERIFY_FAIL_FALLBACK_SYM,-8,-8,1,E0,9.0460,1,0,1,(x + -10)/6 = -3,-8,runs_hybrid_v2/20251221_193934/logs/ALG43__ALG__t1.json
ALG44,ALG,1,LLM+VERIFY_PASS,-91,-91,1,E0,8.6685,1,1,0,x/7 = -13,-91,runs_hybrid_v2/20251221_193934/logs/ALG44__ALG__t1.json
ALG45,ALG,1,LLM+VERIFY_FAIL_FALLBACK_SYM,-16,-16,1,E0,7.8162,1,0,1,3x - (x - 5) = -27,-16,runs_hybrid_v2/20251221_193934/logs/ALG45__ALG__t1.json
ALG46,ALG,1,LLM+VERIFY_PASS,4,4,1,E0,7.5773,1,1,0,9x + -16 = 20,4,runs_hybrid_v2/20251221_193934/logs/ALG46__ALG__t1.json
ALG47,ALG,1,LLM+VERIFY_FAIL_FALLBACK_SYM,-6,-6,1,E0,10.5767,1,0,1,6(x + -1) = -42,-6,runs_hybrid_v2/20251221_193934/logs/ALG47__ALG__t1.json
ALG48,ALG,1,LLM+VERIFY_FAIL_FALLBACK_SYM,4,4,1,E0,8.8604,1,0,1,(x + -16)/3 = -4,4,runs_hybrid_v2/20251221_193934/logs/ALG48__ALG__t1.json
ALG49,ALG,1,LLM+VERIFY_PASS,-128,-128,1,E0,8.6750,1,1,0,x/8 = -16,-128,runs_hybrid_v2/20251221_193934/logs/ALG49__ALG__t1.json
ALG50,ALG,1,LLM+VERIFY_FAIL_FALLBACK_SYM,-20,-20,1,E0,7.4935,1,0,1,3x - (x - 5) = -35,-20,runs_hybrid_v2/20251221_193934/logs/ALG50__ALG__t1.json
ALG51,ALG,1,LLM+VERIFY_PASS,15,15,1,E0,7.7709,1,1,0,2x + 18 = 48,15,runs_hybrid_v2/20251221_193934/logs/ALG51__ALG__t1.json
ALG52,ALG,1,LLM+VERIFY_PASS,-7,-7,1,E0,8.8106,1,1,0,2(x + 1) = -12,-7,runs_hybrid_v2/20251221_193934/logs/ALG52__ALG__t1.json
ALG53,ALG,1,LLM+VERIFY_FAIL_FALLBACK_SYM,-26,-26,1,E0,9.3438,1,0,1,(x + 6)/10 = -2,-26,runs_hybrid_v2/20251221_193934/logs/ALG53__ALG__t1.json
ALG54,ALG,1,LLM+VERIFY_PASS,-44,-44,1,E0,8.5601,1,1,0,x/11 = -4,-44,runs_hybrid_v2/20251221_193934/logs/ALG54__ALG__t1.json
ALG55,ALG,1,LLM+VERIFY_PASS,8,8,1,E0,6.7597,1,1,0,3x - (x - 5) = 21,8,runs_hybrid_v2/20251221_193934/logs/ALG55__ALG__t1.json
ALG56,ALG,1,LLM+VERIFY_FAIL_FALLBACK_SYM,-15,-15,1,E0,9.3090,1,0,1,6x + 21 = -69,-15,runs_hybrid_v2/20251221_193934/logs/ALG56__ALG__t1.json
ALG57,ALG,1,LLM+VERIFY_FAIL_FALLBACK_SYM,13,13,1,E0,8.0630,1,0,1,5(x + 9) = 110,13,runs_hybrid_v2/20251221_193934/logs/ALG57__ALG__t1.json
ALG58,ALG,1,LLM+VERIFY_FAIL_FALLBACK_SYM,9,9,1,E0,9.6011,1,0,1,(x + -19)/10 = -1,9,runs_hybrid_v2/20251221_193934/logs/ALG58__ALG__t1.json
ALG59,ALG,1,LLM+VERIFY_PASS,132,132,1,E0,7.5248,1,1,0,x/12 = 11,132,runs_hybrid_v2/20251221_193934/logs/ALG59__ALG__t1.json
ALG60,ALG,1,LLM+VERIFY_FAIL_FALLBACK_SYM,-13,-13,1,E0,7.6020,1,0,1,3x - (x - 5) = -21,-13,runs_hybrid_v2/20251221_193934/logs/ALG60__ALG__t1.json
ALG61,ALG,1,LLM+VERIFY_PASS,18,18,1,E0,7.8414,1,1,0,11x + -20 = 178,18,runs_hybrid_v2/20251221_193934/logs/ALG61__ALG__t1.json
ALG62,ALG,1,LLM+VERIFY_PASS,11,11,1,E0,2.8701,1,1,0,3(x + 2) = 39,11,runs_hybrid_v2/20251221_193934/logs/ALG62__ALG__t1.json
ALG63,ALG,1,LLM+VERIFY_FAIL_FALLBACK_SYM,9,9,1,E0,8.5359,1,0,1,(x + -9)/8 = 0,9,runs_hybrid_v2/20251221_193934/logs/ALG63__ALG__t1.json
ALG64,ALG,1,LLM+VERIFY_PASS,60,60,1,E0,7.4688,1,1,0,x/6 = 10,60,runs_hybrid_v2/20251221_193934/logs/ALG64__ALG__t1.json
ALG65,ALG,1,LLM+VERIFY_PASS,10,10,1,E0,6.8288,1,1,0,3x - (x - 5) = 25,10,runs_hybrid_v2/20251221_193934/logs/ALG65__ALG__t1.json
ALG66,ALG,1,LLM+VERIFY_PASS,-6,-6,1,E0,8.4958,1,1,0,10x + 23 = -37,-6,runs_hybrid_v2/20251221_193934/logs/ALG66__ALG__t1.json
ALG67,ALG,1,LLM+VERIFY_FAIL_FALLBACK_SYM,9,9,1,E0,7.8644,1,0,1,4(x + 5) = 56,9,runs_hybrid_v2/20251221_193934/logs/ALG67__ALG__t1.json
ALG68,ALG,1,LLM+VERIFY_FAIL_FALLBACK_SYM,8,8,1,E0,9.2262,1,0,1,(x + -15)/7 = -1,8,runs_hybrid_v2/20251221_193934/logs/ALG68__ALG__t1.json
ALG69,ALG,1,LLM+VERIFY_PASS,-156,-156,1,E0,8.2788,1,1,0,x/12 = -13,-156,runs_hybrid_v2/20251221_193934/logs/ALG69__ALG__t1.json
ALG70,ALG,1,LLM+VERIFY_FAIL_FALLBACK_SYM,-16,-16,1,E0,7.6698,1,0,1,3x - (x - 5) = -27,-16,runs_hybrid_v2/20251221_193934/logs/ALG70__ALG__t1.json
ALG71,ALG,1,LLM+VERIFY_PASS,20,20,1,E0,7.5947,1,1,0,11x + -24 = 196,20,runs_hybrid_v2/20251221_193934/logs/ALG71__ALG__t1.json
ALG72,ALG,1,LLM+VERIFY_FAIL_FALLBACK_SYM,-1,-1,1,E0,7.8233,1,0,1,4(x + 3) = 8,-1,runs_hybrid_v2/20251221_193934/logs/ALG72__ALG__t1.json
ALG73,ALG,1,LLM+VERIFY_FAIL_FALLBACK_SYM,-23,-23,1,E0,9.3859,1,0,1,(x + -12)/7 = -5,-23,runs_hybrid_v2/20251221_193934/logs/ALG73__ALG__t1.json
ALG74,ALG,1,LLM+VERIFY_PASS,-108,-108,1,E0,8.5057,1,1,0,x/6 = -18,-108,runs_hybrid_v2/20251221_193934/logs/ALG74__ALG__t1.json
ALG75,ALG,1,LLM+VERIFY_FAIL_FALLBACK_SYM,-6,-6,1,E0,7.5905,1,0,1,3x - (x - 5) = -7,-6,runs_hybrid_v2/20251221_193934/logs/ALG75__ALG__t1.json
ALG76,ALG,1,LLM+VERIFY_FAIL_FALLBACK_SYM,-19,-19,1,E0,8.6440,1,0,1,12x + -6 = -234,-19,runs_hybrid_v2/20251221_193934/logs/ALG76__ALG__t1.json
ALG77,ALG,1,LLM+VERIFY_FAIL_FALLBACK_SYM,-11,-11,1,E0,3.4263,1,0,1,12(x + -4) = -180,-11,runs_hybrid_v2/20251221_193934/logs/ALG77__ALG__t1.json
ALG78,ALG,1,LLM+VERIFY_FAIL_FALLBACK_SYM,-18,-18,1,E0,9.4031,1,0,1,(x + -15)/11 = -3,-18,runs_hybrid_v2/20251221_193934/logs/ALG78__ALG__t1.json
ALG79,ALG,1,LLM+VERIFY_PASS,-90,-90,1,E0,8.5384,1,1,0,x/9 = -10,-90,runs_hybrid_v2/20251221_193934/logs/ALG79__ALG__t1.json
ALG80,ALG,1,LLM+VERIFY_PASS,10,10,1,E0,6.7619,1,1,0,3x - (x - 5) = 25,10,runs_hybrid_v2/20251221_193934/logs/ALG80__ALG__t1.json
ALG81,ALG,1,LLM+VERIFY_FAIL_FALLBACK_SYM,-18,-18,1,E0,8.9387,1,0,1,10x + -19 = -199,-18,runs_hybrid_v2/20251221_193934/logs/ALG81__ALG__t1.json
ALG82,ALG,1,LLM+VERIFY_FAIL_FALLBACK_SYM,-9,-9,1,E0,8.4474,1,0,1,5(x + 10) = 5,-9,runs_hybrid_v2/20251221_193934/logs/ALG82__ALG__t1.json
ALG83,ALG,1,LLM+VERIFY_FAIL_FALLBACK_SYM,-9,-9,1,E0,9.5705,1,0,1,(x + -13)/11 = -2,-9,runs_hybrid_v2/20251221_193934/logs/ALG83__ALG__t1.json
ALG84,ALG,1,LLM+VERIFY_PASS,132,132,1,E0,7.4675,1,1,0,x/12 = 11,132,runs_hybrid_v2/20251221_193934/logs/ALG84__ALG__t1.json
ALG85,ALG,1,LLM+VERIFY_FAIL_FALLBACK_SYM,19,19,1,E0,6.8935,1,0,1,3x - (x - 5) = 43,19,runs_hybrid_v2/20251221_193934/logs/ALG85__ALG__t1.json
ALG86,ALG,1,LLM+VERIFY_PASS,2,2,1,E0,7.5697,1,1,0,4x + 21 = 29,2,runs_hybrid_v2/20251221_193934/logs/ALG86__ALG__t1.json
ALG87,ALG,1,LLM+VERIFY_PASS,11,11,1,E0,8.0522,1,1,0,4(x + 9) = 80,11,runs_hybrid_v2/20251221_193934/logs/ALG87__ALG__t1.json
ALG88,ALG,1,LLM+VERIFY_FAIL_FALLBACK_SYM,-19,-19,1,E0,9.3404,1,0,1,(x + -16)/7 = -5,-19,runs_hybrid_v2/20251221_193934/logs/ALG88__ALG__t1.json
ALG89,ALG,1,LLM+VERIFY_PASS,-126,-126,1,E0,8.5106,1,1,0,x/7 = -18,-126,runs_hybrid_v2/20251221_193934/logs/ALG89__ALG__t1.json
ALG90,ALG,1,LLM+VERIFY_FAIL_FALLBACK_SYM,4,4,1,E0,6.7987,1,0,1,3x - (x - 5) = 13,4,runs_hybrid_v2/20251221_193934/logs/ALG90__ALG__t1.json
ALG91,ALG,1,LLM+VERIFY_PASS,-5,-5,1,E0,9.1720,1,1,0,4x + -25 = -45,-5,runs_hybrid_v2/20251221_193934/logs/ALG91__ALG__t1.json
ALG92,ALG,1,LLM+VERIFY_FAIL_FALLBACK_SYM,17,17,1,E0,7.9669,1,0,1,8(x + 6) = 184,17,runs_hybrid_v2/20251221_193934/logs/ALG92__ALG__t1.json
ALG93,ALG,1,LLM+VERIFY_FAIL_FALLBACK_SYM,4,4,1,E0,9.0047,1,0,1,(x + 8)/12 = 1,4,runs_hybrid_v2/20251221_193934/logs/ALG93__ALG__t1.json
ALG94,ALG,1,LLM+VERIFY_PASS,135,135,1,E0,7.5166,1,1,0,x/9 = 15,135,runs_hybrid_v2/20251221_193934/logs/ALG94__ALG__t1.json
ALG95,ALG,1,LLM+VERIFY_FAIL_FALLBACK_SYM,-18,-18,1,E0,7.8386,1,0,1,3x - (x - 5) = -31,-18,runs_hybrid_v2/20251221_193934/logs/ALG95__ALG__t1.json
ALG96,ALG,1,LLM+VERIFY_PASS,18,18,1,E0,2.7882,1,1,0,8x + -2 = 142,18,runs_hybrid_v2/20251221_193934/logs/ALG96__ALG__t1.json
ALG97,ALG,1,LLM+VERIFY_PASS,-4,-4,1,E0,8.9268,1,1,0,8(x + 1) = -24,-4,runs_hybrid_v2/20251221_193934/logs/ALG97__ALG__t1.json
ALG98,ALG,1,LLM+VERIFY_FAIL_FALLBACK_SYM,-16,-16,1,E0,9.2926,1,0,1,(x + 4)/6 = -2,-16,runs_hybrid_v2/20251221_193934/logs/ALG98__ALG__t1.json
ALG99,ALG,1,LLM+VERIFY_PASS,0,0,1,E0,6.7752,1,1,0,x/9 = 0,0,runs_hybrid_v2/20251221_193934/logs/ALG99__ALG__t1.json
ALG100,ALG,1,LLM+VERIFY_FAIL_FALLBACK_SYM,-10,-10,1,E0,7.5170,1,0,1,3x - (x - 5) = -15,-10,runs_hybrid_v2/20251221_193934/logs/ALG100__ALG__t1.json
LOG11,LOG,1,LLM_LOG_SELFCONSIST,Yes,Yes,1,E0,9.2050,0,,0,,,runs_hybrid_v2/20251221_193934/logs/LOG11__LOG__t1.json
LOG12,LOG,1,LLM_LOG_SELFCONSIST,No,Yes,0,E2,9.0808,0,,0,,,runs_hybrid_v2/20251221_193934/logs/LOG12__LOG__t1.json
LOG13,LOG,1,LLM_LOG_SELFCONSIST,Yes,Yes,1,E0,30.1836,0,,0,,,runs_hybrid_v2/20251221_193934/logs/LOG13__LOG__t1.json
LOG14,LOG,1,LLM_LOG_SELFCONSIST,No,Yes,0,E2,9.0841,0,,0,,,runs_hybrid_v2/20251221_193934/logs/LOG14__LOG__t1.json
LOG15,LOG,1,LLM_LOG_SELFCONSIST,Yes,Yes,1,E0,9.0129,0,,0,,,runs_hybrid_v2/20251221_193934/logs/LOG15__LOG__t1.json
LOG16,LOG,1,LLM_LOG_SELFCONSIST,No,No,1,E0,12.3519,0,,0,,,runs_hybrid_v2/20251221_193934/logs/LOG16__LOG__t1.json
LOG17,LOG,1,LLM_LOG_SELFCONSIST,Yes,No,0,E2,12.1374,0,,0,,,runs_hybrid_v2/20251221_193934/logs/LOG17__LOG__t1.json
LOG18,LOG,1,LLM_LOG_SELFCONSIST,Yes,Yes,1,E0,8.8218,0,,0,,,runs_hybrid_v2/20251221_193934/logs/LOG18__LOG__t1.json
LOG19,LOG,1,LLM_LOG_SELFCONSIST,Yes,Yes,1,E0,9.0559,0,,0,,,runs_hybrid_v2/20251221_193934/logs/LOG19__LOG__t1.json
LOG20,LOG,1,LLM_LOG_SELFCONSIST,Yes,No,0,E2,21.9624,0,,0,,,runs_hybrid_v2/20251221_193934/logs/LOG20__LOG__t1.json
LOG21,LOG,1,LLM_LOG_SELFCONSIST,Yes,Yes,1,E0,12.7176,0,,0,,,runs_hybrid_v2/20251221_193934/logs/LOG21__LOG__t1.json
LOG22,LOG,1,LLM_LOG_SELFCONSIST,No,Yes,0,E2,12.5018,0,,0,,,runs_hybrid_v2/20251221_193934/logs/LOG22__LOG__t1.json
LOG23,LOG,1,LLM_LOG_SELFCONSIST,Yes,Yes,1,E0,29.2299,0,,0,,,runs_hybrid_v2/20251221_193934/logs/LOG23__LOG__t1.json
LOG24,LOG,1,LLM_LOG_SELFCONSIST,No,Yes,0,E2,12.3989,0,,0,,,runs_hybrid_v2/20251221_193934/logs/LOG24__LOG__t1.json
LOG25,LOG,1,LLM_LOG_SELFCONSIST,Yes,Yes,1,E0,12.2367,0,,0,,,runs_hybrid_v2/20251221_193934/logs/LOG25__LOG__t1.json
LOG26,LOG,1,LLM_LOG_SELFCONSIST,No,No,1,E0,12.2791,0,,0,,,runs_hybrid_v2/20251221_193934/logs/LOG26__LOG__t1.json
LOG27,LOG,1,LLM_LOG_SELFCONSIST,Yes,No,0,E2,12.3950,0,,0,,,runs_hybrid_v2/20251221_193934/logs/LOG27__LOG__t1.json
LOG28,LOG,1,LLM_LOG_SELFCONSIST,Yes,Yes,1,E0,11.9212,0,,0,,,runs_hybrid_v2/20251221_193934/logs/LOG28__LOG__t1.json
LOG29,LOG,1,LLM_LOG_SELFCONSIST,Yes,Yes,1,E0,12.3218,0,,0,,,runs_hybrid_v2/20251221_193934/logs/LOG29__LOG__t1.json
LOG30,LOG,1,LLM_LOG_SELFCONSIST,Yes,No,0,E2,25.4801,0,,0,,,runs_hybrid_v2/20251221_193934/logs/LOG30__LOG__t1.json
LOG31,LOG,1,LLM_LOG_SELFCONSIST,Yes,Yes,1,E0,12.2292,0,,0,,,runs_hybrid_v2/20251221_193934/logs/LOG31__LOG__t1.json
LOG32,LOG,1,LLM_LOG_SELFCONSIST,No,Yes,0,E2,12.3882,0,,0,,,runs_hybrid_v2/20251221_193934/logs/LOG32__LOG__t1.json
LOG33,LOG,1,LLM_LOG_SELFCONSIST,Yes,Yes,1,E0,29.1409,0,,0,,,runs_hybrid_v2/20251221_193934/logs/LOG33__LOG__t1.json
LOG34,LOG,1,LLM_LOG_SELFCONSIST,No,Yes,0,E2,12.4078,0,,0,,,runs_hybrid_v2/20251221_193934/logs/LOG34__LOG__t1.json
LOG35,LOG,1,LLM_LOG_SELFCONSIST,Yes,Yes,1,E0,12.1754,0,,0,,,runs_hybrid_v2/20251221_193934/logs/LOG35__LOG__t1.json
LOG36,LOG,1,LLM_LOG_SELFCONSIST,No,No,1,E0,12.2458,0,,0,,,runs_hybrid_v2/20251221_193934/logs/LOG36__LOG__t1.json
LOG37,LOG,1,LLM_LOG_SELFCONSIST,Yes,No,0,E2,12.2019,0,,0,,,runs_hybrid_v2/20251221_193934/logs/LOG37__LOG__t1.json
LOG38,LOG,1,LLM_LOG_SELFCONSIST,Yes,Yes,1,E0,12.3197,0,,0,,,runs_hybrid_v2/20251221_193934/logs/LOG38__LOG__t1.json
LOG39,LOG,1,LLM_LOG_SELFCONSIST,Yes,Yes,1,E0,12.2100,0,,0,,,runs_hybrid_v2/20251221_193934/logs/LOG39__LOG__t1.json
LOG40,LOG,1,LLM_LOG_SELFCONSIST,Yes,No,0,E2,25.2617,0,,0,,,runs_hybrid_v2/20251221_193934/logs/LOG40__LOG__t1.json
LOG41,LOG,1,LLM_LOG_SELFCONSIST,Yes,Yes,1,E0,12.1996,0,,0,,,runs_hybrid_v2/20251221_193934/logs/LOG41__LOG__t1.json
LOG42,LOG,1,LLM_LOG_SELFCONSIST,No,Yes,0,E2,12.3761,0,,0,,,runs_hybrid_v2/20251221_193934/logs/LOG42__LOG__t1.json
LOG43,LOG,1,LLM_LOG_SELFCONSIST,Yes,Yes,1,E0,28.6009,0,,0,,,runs_hybrid_v2/20251221_193934/logs/LOG43__LOG__t1.json
LOG44,LOG,1,LLM_LOG_SELFCONSIST,No,Yes,0,E2,12.4647,0,,0,,,runs_hybrid_v2/20251221_193934/logs/LOG44__LOG__t1.json
LOG45,LOG,1,LLM_LOG_SELFCONSIST,Yes,Yes,1,E0,12.7967,0,,0,,,runs_hybrid_v2/20251221_193934/logs/LOG45__LOG__t1.json
LOG46,LOG,1,LLM_LOG_SELFCONSIST,No,No,1,E0,12.2177,0,,0,,,runs_hybrid_v2/20251221_193934/logs/LOG46__LOG__t1.json
LOG47,LOG,1,LLM_LOG_SELFCONSIST,Yes,No,0,E2,12.1947,0,,0,,,runs_hybrid_v2/20251221_193934/logs/LOG47__LOG__t1.json
LOG48,LOG,1,LLM_LOG_SELFCONSIST,Yes,Yes,1,E0,12.0033,0,,0,,,runs_hybrid_v2/20251221_193934/logs/LOG48__LOG__t1.json
LOG49,LOG,1,LLM_LOG_SELFCONSIST,Yes,Yes,1,E0,12.1531,0,,0,,,runs_hybrid_v2/20251221_193934/logs/LOG49__LOG__t1.json
LOG50,LOG,1,LLM_LOG_SELFCONSIST,Yes,No,0,E2,24.8609,0,,0,,,runs_hybrid_v2/20251221_193934/logs/LOG50__LOG__t1.json
LOG51,LOG,1,LLM_LOG_SELFCONSIST,Yes,Yes,1,E0,12.2235,0,,0,,,runs_hybrid_v2/20251221_193934/logs/LOG51__LOG__t1.json
LOG52,LOG,1,LLM_LOG_SELFCONSIST,No,Yes,0,E2,12.3367,0,,0,,,runs_hybrid_v2/20251221_193934/logs/LOG52__LOG__t1.json
LOG53,LOG,1,LLM_LOG_SELFCONSIST,Yes,Yes,1,E0,28.4534,0,,0,,,runs_hybrid_v2/20251221_193934/logs/LOG53__LOG__t1.json
LOG54,LOG,1,LLM_LOG_SELFCONSIST,No,Yes,0,E2,12.1843,0,,0,,,runs_hybrid_v2/20251221_193934/logs/LOG54__LOG__t1.json
LOG55,LOG,1,LLM_LOG_SELFCONSIST,Yes,Yes,1,E0,12.5947,0,,0,,,runs_hybrid_v2/20251221_193934/logs/LOG55__LOG__t1.json
LOG56,LOG,1,LLM_LOG_SELFCONSIST,No,No,1,E0,12.3736,0,,0,,,runs_hybrid_v2/20251221_193934/logs/LOG56__LOG__t1.json
LOG57,LOG,1,LLM_LOG_SELFCONSIST,Yes,No,0,E2,12.4627,0,,0,,,runs_hybrid_v2/20251221_193934/logs/LOG57__LOG__t1.json
LOG58,LOG,1,LLM_LOG_SELFCONSIST,Yes,Yes,1,E0,12.1857,0,,0,,,runs_hybrid_v2/20251221_193934/logs/LOG58__LOG__t1.json
LOG59,LOG,1,LLM_LOG_SELFCONSIST,Yes,Yes,1,E0,12.2597,0,,0,,,runs_hybrid_v2/20251221_193934/logs/LOG59__LOG__t1.json
LOG60,LOG,1,LLM_LOG_SELFCONSIST,Yes,No,0,E2,25.0055,0,,0,,,runs_hybrid_v2/20251221_193934/logs/LOG60__LOG__t1.json
LOG61,LOG,1,LLM_LOG_SELFCONSIST,Yes,Yes,1,E0,12.1315,0,,0,,,runs_hybrid_v2/20251221_193934/logs/LOG61__LOG__t1.json
LOG62,LOG,1,LLM_LOG_SELFCONSIST,No,Yes,0,E2,12.3121,0,,0,,,runs_hybrid_v2/20251221_193934/logs/LOG62__LOG__t1.json
LOG63,LOG,1,LLM_LOG_SELFCONSIST,Yes,Yes,1,E0,28.7458,0,,0,,,runs_hybrid_v2/20251221_193934/logs/LOG63__LOG__t1.json
LOG64,LOG,1,LLM_LOG_SELFCONSIST,No,Yes,0,E2,12.1136,0,,0,,,runs_hybrid_v2/20251221_193934/logs/LOG64__LOG__t1.json
LOG65,LOG,1,LLM_LOG_SELFCONSIST,Yes,Yes,1,E0,11.9986,0,,0,,,runs_hybrid_v2/20251221_193934/logs/LOG65__LOG__t1.json
LOG66,LOG,1,LLM_LOG_SELFCONSIST,No,No,1,E0,11.9153,0,,0,,,runs_hybrid_v2/20251221_193934/logs/LOG66__LOG__t1.json
LOG67,LOG,1,LLM_LOG_SELFCONSIST,Yes,No,0,E2,12.0918,0,,0,,,runs_hybrid_v2/20251221_193934/logs/LOG67__LOG__t1.json
LOG68,LOG,1,LLM_LOG_SELFCONSIST,Yes,Yes,1,E0,11.8204,0,,0,,,runs_hybrid_v2/20251221_193934/logs/LOG68__LOG__t1.json
LOG69,LOG,1,LLM_LOG_SELFCONSIST,Yes,Yes,1,E0,12.2987,0,,0,,,runs_hybrid_v2/20251221_193934/logs/LOG69__LOG__t1.json
LOG70,LOG,1,LLM_LOG_SELFCONSIST,Yes,No,0,E2,24.8341,0,,0,,,runs_hybrid_v2/20251221_193934/logs/LOG70__LOG__t1.json
LOG71,LOG,1,LLM_LOG_SELFCONSIST,Yes,Yes,1,E0,12.1227,0,,0,,,runs_hybrid_v2/20251221_193934/logs/LOG71__LOG__t1.json
LOG72,LOG,1,LLM_LOG_SELFCONSIST,No,Yes,0,E2,12.1386,0,,0,,,runs_hybrid_v2/20251221_193934/logs/LOG72__LOG__t1.json
LOG73,LOG,1,LLM_LOG_SELFCONSIST,Yes,Yes,1,E0,28.8246,0,,0,,,runs_hybrid_v2/20251221_193934/logs/LOG73__LOG__t1.json
LOG74,LOG,1,LLM_LOG_SELFCONSIST,No,Yes,0,E2,12.1416,0,,0,,,runs_hybrid_v2/20251221_193934/logs/LOG74__LOG__t1.json
LOG75,LOG,1,LLM_LOG_SELFCONSIST,Yes,Yes,1,E0,11.9484,0,,0,,,runs_hybrid_v2/20251221_193934/logs/LOG75__LOG__t1.json
LOG76,LOG,1,LLM_LOG_SELFCONSIST,No,No,1,E0,12.3411,0,,0,,,runs_hybrid_v2/20251221_193934/logs/LOG76__LOG__t1.json
LOG77,LOG,1,LLM_LOG_SELFCONSIST,Yes,No,0,E2,11.9548,0,,0,,,runs_hybrid_v2/20251221_193934/logs/LOG77__LOG__t1.json
LOG78,LOG,1,LLM_LOG_SELFCONSIST,Yes,Yes,1,E0,11.8976,0,,0,,,runs_hybrid_v2/20251221_193934/logs/LOG78__LOG__t1.json
LOG79,LOG,1,LLM_LOG_SELFCONSIST,Yes,Yes,1,E0,11.9030,0,,0,,,runs_hybrid_v2/20251221_193934/logs/LOG79__LOG__t1.json
LOG80,LOG,1,LLM_LOG_SELFCONSIST,Yes,No,0,E2,24.7748,0,,0,,,runs_hybrid_v2/20251221_193934/logs/LOG80__LOG__t1.json
LOG81,LOG,1,LLM_LOG_SELFCONSIST,Yes,Yes,1,E0,12.2648,0,,0,,,runs_hybrid_v2/20251221_193934/logs/LOG81__LOG__t1.json
LOG82,LOG,1,LLM_LOG_SELFCONSIST,No,Yes,0,E2,12.1188,0,,0,,,runs_hybrid_v2/20251221_193934/logs/LOG82__LOG__t1.json
LOG83,LOG,1,LLM_LOG_SELFCONSIST,Yes,Yes,1,E0,28.1533,0,,0,,,runs_hybrid_v2/20251221_193934/logs/LOG83__LOG__t1.json
LOG84,LOG,1,LLM_LOG_SELFCONSIST,No,Yes,0,E2,12.1643,0,,0,,,runs_hybrid_v2/20251221_193934/logs/LOG84__LOG__t1.json
LOG85,LOG,1,LLM_LOG_SELFCONSIST,Yes,Yes,1,E0,11.9606,0,,0,,,runs_hybrid_v2/20251221_193934/logs/LOG85__LOG__t1.json
LOG86,LOG,1,LLM_LOG_SELFCONSIST,No,No,1,E0,11.9120,0,,0,,,runs_hybrid_v2/20251221_193934/logs/LOG86__LOG__t1.json
LOG87,LOG,1,LLM_LOG_SELFCONSIST,Yes,No,0,E2,12.1531,0,,0,,,runs_hybrid_v2/20251221_193934/logs/LOG87__LOG__t1.json
LOG88,LOG,1,LLM_LOG_SELFCONSIST,Yes,Yes,1,E0,11.9116,0,,0,,,runs_hybrid_v2/20251221_193934/logs/LOG88__LOG__t1.json
LOG89,LOG,1,LLM_LOG_SELFCONSIST,Yes,Yes,1,E0,12.0945,0,,0,,,runs_hybrid_v2/20251221_193934/logs/LOG89__LOG__t1.json
LOG90,LOG,1,LLM_LOG_SELFCONSIST,Yes,No,0,E2,24.9923,0,,0,,,runs_hybrid_v2/20251221_193934/logs/LOG90__LOG__t1.json
LOG91,LOG,1,LLM_LOG_SELFCONSIST,Yes,Yes,1,E0,12.1621,0,,0,,,runs_hybrid_v2/20251221_193934/logs/LOG91__LOG__t1.json
LOG92,LOG,1,LLM_LOG_SELFCONSIST,No,Yes,0,E2,12.0388,0,,0,,,runs_hybrid_v2/20251221_193934/logs/LOG92__LOG__t1.json
LOG93,LOG,1,LLM_LOG_SELFCONSIST,Yes,Yes,1,E0,28.6548,0,,0,,,runs_hybrid_v2/20251221_193934/logs/LOG93__LOG__t1.json
LOG94,LOG,1,LLM_LOG_SELFCONSIST,No,Yes,0,E2,12.0749,0,,0,,,runs_hybrid_v2/20251221_193934/logs/LOG94__LOG__t1.json
LOG95,LOG,1,LLM_LOG_SELFCONSIST,Yes,Yes,1,E0,11.9469,0,,0,,,runs_hybrid_v2/20251221_193934/logs/LOG95__LOG__t1.json
LOG96,LOG,1,LLM_LOG_SELFCONSIST,No,No,1,E0,11.9643,0,,0,,,runs_hybrid_v2/20251221_193934/logs/LOG96__LOG__t1.json
LOG97,LOG,1,LLM_LOG_SELFCONSIST,Yes,No,0,E2,12.2151,0,,0,,,runs_hybrid_v2/20251221_193934/logs/LOG97__LOG__t1.json
LOG98,LOG,1,LLM_LOG_SELFCONSIST,Yes,Yes,1,E0,11.6862,0,,0,,,runs_hybrid_v2/20251221_193934/logs/LOG98__LOG__t1.json
LOG99,LOG,1,LLM_LOG_SELFCONSIST,Yes,Yes,1,E0,11.9577,0,,0,,,runs_hybrid_v2/20251221_193934/logs/LOG99__LOG__t1.json
LOG100,LOG,1,LLM_LOG_SELFCONSIST,Yes,No,0,E2,24.7022,0,,0,,,runs_hybrid_v2/20251221_193934/logs/LOG100__LOG__t1.json
WP11,WP,1,LLM+VERIFY_ERROR_KEEP_LLM,182,182,1,E0,8.5500,1,,0,,,runs_hybrid_v2/20251221_193934/logs/WP11__WP__t1.json
WP12,WP,1,LLM+VERIFY_PASS,150,150,1,E0,8.4293,1,1,0,25*6,150,runs_hybrid_v2/20251221_193934/logs/WP12__WP__t1.json
WP13,WP,1,LLM+VERIFY_PASS,130,130,1,E0,8.9418,1,1,0,165-35,130,runs_hybrid_v2/20251221_193934/logs/WP13__WP__t1.json
WP14,WP,1,LLM+VERIFY_PASS,25,25,1,E0,10.5654,1,1,0,150/6,25,runs_hybrid_v2/20251221_193934/logs/WP14__WP__t1.json
WP15,WP,1,LLM+VERIFY_PASS,6,6,1,E0,10.1616,1,1,0,36/6,6,runs_hybrid_v2/20251221_193934/logs/WP15__WP__t1.json
WP16,WP,1,LLM+VERIFY_PASS,35,35,1,E0,9.7964,1,1,0,5*7,35,runs_hybrid_v2/20251221_193934/logs/WP16__WP__t1.json
WP17,WP,1,LLM+VERIFY_PASS,16,16,1,E0,9.6989,1,1,0,96/6,16,runs_hybrid_v2/20251221_193934/logs/WP17__WP__t1.json
WP18,WP,1,LLM+VERIFY_PASS,75,75,1,E0,10.7165,1,1,0,100.0*(1-(25.0/100)),75,runs_hybrid_v2/20251221_193934/logs/WP18__WP__t1.json
WP19,WP,1,LLM+VERIFY_PASS,168,168,1,E0,9.7380,1,1,0,14*12,168,runs_hybrid_v2/20251221_193934/logs/WP19__WP__t1.json
WP20,WP,1,LLM+VERIFY_ERROR_KEEP_LLM,35,35,1,E0,9.6945,1,,0,,,runs_hybrid_v2/20251221_193934/logs/WP20__WP__t1.json
WP21,WP,1,LLM+VERIFY_ERROR_KEEP_LLM,110,110,1,E0,8.7508,1,,0,,,runs_hybrid_v2/20251221_193934/logs/WP21__WP__t1.json
WP22,WP,1,LLM+VERIFY_PASS,360,360,1,E0,8.5580,1,1,0,30*12,360,runs_hybrid_v2/20251221_193934/logs/WP22__WP__t1.json
WP23,WP,1,LLM+VERIFY_PASS,18,18,1,E0,8.9943,1,1,0,136-118,18,runs_hybrid_v2/20251221_193934/logs/WP23__WP__t1.json
WP24,WP,1,LLM+VERIFY_PASS,60,60,1,E0,10.8446,1,1,0,180/3,60,runs_hybrid_v2/20251221_193934/logs/WP24__WP__t1.json
WP25,WP,1,LLM+VERIFY_PASS,5,5,1,E0,10.3432,1,1,0,40/8,5,runs_hybrid_v2/20251221_193934/logs/WP25__WP__t1.json
WP26,WP,1,LLM+VERIFY_PASS,40,40,1,E0,10.3330,1,1,0,8*5,40,runs_hybrid_v2/20251221_193934/logs/WP26__WP__t1.json
WP27,WP,1,LLM+VERIFY_PASS,2,2,1,E0,9.5371,1,1,0,24/12,2,runs_hybrid_v2/20251221_193934/logs/WP27__WP__t1.json
WP28,WP,1,LLM+VERIFY_PASS,180,180,1,E0,10.3437,1,1,0,200.0*(1-(10.0/100)),180,runs_hybrid_v2/20251221_193934/logs/WP28__WP__t1.json
WP29,WP,1,LLM+VERIFY_PASS,187,187,1,E0,9.9235,1,1,0,11*17,187,runs_hybrid_v2/20251221_193934/logs/WP29__WP__t1.json
WP30,WP,1,LLM+VERIFY_ERROR_KEEP_LLM,35,35,1,E0,2.2490,1,,0,,,runs_hybrid_v2/20251221_193934/logs/WP30__WP__t1.json
WP31,WP,1,LLM+VERIFY_ERROR_KEEP_LLM,120,120,1,E0,8.8060,1,,0,,,runs_hybrid_v2/20251221_193934/logs/WP31__WP__t1.json
WP32,WP,1,LLM+VERIFY_PASS,88,88,1,E0,8.7013,1,1,0,11*8,88,runs_hybrid_v2/20251221_193934/logs/WP32__WP__t1.json
WP33,WP,1,LLM+VERIFY_PASS,20,20,1,E0,8.9215,1,1,0,128-108,20,runs_hybrid_v2/20251221_193934/logs/WP33__WP__t1.json
WP34,WP,1,LLM+VERIFY_PASS,90,90,1,E0,9.7226,1,1,0,180/2,90,runs_hybrid_v2/20251221_193934/logs/WP34__WP__t1.json
WP35,WP,1,LLM+VERIFY_PASS,4,4,1,E0,10.3556,1,1,0,48/12,4,runs_hybrid_v2/20251221_193934/logs/WP35__WP__t1.json
WP36,WP,1,LLM+VERIFY_PASS,22,22,1,E0,10.0852,1,1,0,2*11,22,runs_hybrid_v2/20251221_193934/logs/WP36__WP__t1.json
WP37,WP,1,LLM+VERIFY_PASS,12,12,1,E0,9.8013,1,1,0,72/6,12,runs_hybrid_v2/20251221_193934/logs/WP37__WP__t1.json
WP38,WP,1,LLM+VERIFY_PASS,30,30,1,E0,10.3213,1,1,0,50.0*(1-(40.0/100)),30,runs_hybrid_v2/20251221_193934/logs/WP38__WP__t1.json
WP39,WP,1,LLM+VERIFY_PASS,72,72,1,E0,9.6424,1,1,0,6*12,72,runs_hybrid_v2/20251221_193934/logs/WP39__WP__t1.json
WP40,WP,1,LLM+VERIFY_ERROR_KEEP_LLM,41,41,1,E0,12.0482,1,,0,,,runs_hybrid_v2/20251221_193934/logs/WP40__WP__t1.json
WP41,WP,1,LLM+VERIFY_ERROR_KEEP_LLM,255,255,1,E0,8.6259,1,,0,,,runs_hybrid_v2/20251221_193934/logs/WP41__WP__t1.json
WP42,WP,1,LLM+VERIFY_PASS,352,352,1,E0,8.4549,1,1,0,16*22,352,runs_hybrid_v2/20251221_193934/logs/WP42__WP__t1.json
WP43,WP,1,LLM+VERIFY_PASS,48,48,1,E0,9.0950,1,1,0,74-26,48,runs_hybrid_v2/20251221_193934/logs/WP43__WP__t1.json
WP44,WP,1,LLM+VERIFY_PASS,75,75,1,E0,10.7749,1,1,0,150/2,75,runs_hybrid_v2/20251221_193934/logs/WP44__WP__t1.json
WP45,WP,1,LLM+VERIFY_PASS,1,1,1,E0,10.3692,1,1,0,8/8,1,runs_hybrid_v2/20251221_193934/logs/WP45__WP__t1.json
WP46,WP,1,LLM+VERIFY_PASS,22,22,1,E0,1.7178,1,1,0,2*11,22,runs_hybrid_v2/20251221_193934/logs/WP46__WP__t1.json
WP47,WP,1,LLM+VERIFY_PASS,6,6,1,E0,9.6422,1,1,0,54/9,6,runs_hybrid_v2/20251221_193934/logs/WP47__WP__t1.json
WP48,WP,1,LLM+VERIFY_PASS,35,35,1,E0,8.9770,1,1,0,50.0*(1-(30.0/100)),35,runs_hybrid_v2/20251221_193934/logs/WP48__WP__t1.json
WP49,WP,1,LLM+VERIFY_PASS,189,189,1,E0,9.5767,1,1,0,21*9,189,runs_hybrid_v2/20251221_193934/logs/WP49__WP__t1.json
WP50,WP,1,LLM+VERIFY_ERROR_KEEP_LLM,88,88,1,E0,11.9007,1,,0,,,runs_hybrid_v2/20251221_193934/logs/WP50__WP__t1.json
WP51,WP,1,LLM+VERIFY_ERROR_KEEP_LLM,39,39,1,E0,8.7342,1,,0,,,runs_hybrid_v2/20251221_193934/logs/WP51__WP__t1.json
WP52,WP,1,LLM+VERIFY_PASS,567,567,1,E0,9.2488,1,1,0,27*21,567,runs_hybrid_v2/20251221_193934/logs/WP52__WP__t1.json
WP53,WP,1,LLM+VERIFY_PASS,10,10,1,E0,8.8406,1,1,0,191-181,10,runs_hybrid_v2/20251221_193934/logs/WP53__WP__t1.json
WP54,WP,1,LLM+VERIFY_PASS,36,36,1,E0,10.6564,1,1,0,180/5,36,runs_hybrid_v2/20251221_193934/logs/WP54__WP__t1.json
WP55,WP,1,LLM+VERIFY_PASS,1,1,1,E0,10.4510,1,1,0,10/10,1,runs_hybrid_v2/20251221_193934/logs/WP55__WP__t1.json
WP56,WP,1,LLM+VERIFY_PASS,88,88,1,E0,10.1198,1,1,0,8*11,88,runs_hybrid_v2/20251221_193934/logs/WP56__WP__t1.json
WP57,WP,1,LLM+VERIFY_PASS,3,3,1,E0,9.9136,1,1,0,21/7,3,runs_hybrid_v2/20251221_193934/logs/WP57__WP__t1.json
WP58,WP,1,LLM+VERIFY_PASS,45,45,1,E0,10.5270,1,1,0,60.0*(1-(25.0/100)),45,runs_hybrid_v2/20251221_193934/logs/WP58__WP__t1.json
WP59,WP,1,LLM+VERIFY_PASS,160,160,1,E0,9.7577,1,1,0,10*16,160,runs_hybrid_v2/20251221_193934/logs/WP59__WP__t1.json
WP60,WP,1,LLM+VERIFY_ERROR_KEEP_LLM,70,70,1,E0,12.1517,1,,0,,,runs_hybrid_v2/20251221_193934/logs/WP60__WP__t1.json
WP61,WP,1,LLM+VERIFY_ERROR_KEEP_LLM,126,126,1,E0,8.6101,1,,0,,,runs_hybrid_v2/20251221_193934/logs/WP61__WP__t1.json
WP62,WP,1,LLM+VERIFY_PASS,98,98,1,E0,8.6871,1,1,0,7*14,98,runs_hybrid_v2/20251221_193934/logs/WP62__WP__t1.json
WP63,WP,1,LLM+VERIFY_PASS,131,131,1,E0,9.1359,1,1,0,180-49,131,runs_hybrid_v2/20251221_193934/logs/WP63__WP__t1.json
WP64,WP,1,LLM+VERIFY_PASS,45,45,1,E0,11.0364,1,1,0,90/2,45,runs_hybrid_v2/20251221_193934/logs/WP64__WP__t1.json
WP65,WP,1,LLM+VERIFY_PASS,3,3,1,E0,10.5320,1,1,0,12/4,3,runs_hybrid_v2/20251221_193934/logs/WP65__WP__t1.json
WP66,WP,1,LLM+VERIFY_PASS,40,40,1,E0,10.1800,1,1,0,4*10,40,runs_hybrid_v2/20251221_193934/logs/WP66__WP__t1.json
WP67,WP,1,LLM+VERIFY_PASS,4,4,1,E0,9.6435,1,1,0,36/9,4,runs_hybrid_v2/20251221_193934/logs/WP67__WP__t1.json
WP68,WP,1,LLM+VERIFY_PASS,36,36,1,E0,10.4299,1,1,0,40.0*(1-(10.0/100)),36,runs_hybrid_v2/20251221_193934/logs/WP68__WP__t1.json
WP69,WP,1,LLM+VERIFY_PASS,120,120,1,E0,9.7672,1,1,0,20*6,120,runs_hybrid_v2/20251221_193934/logs/WP69__WP__t1.json
WP70,WP,1,LLM+VERIFY_ERROR_KEEP_LLM,93,93,1,E0,12.2984,1,,0,,,runs_hybrid_v2/20251221_193934/logs/WP70__WP__t1.json
WP71,WP,1,LLM+VERIFY_ERROR_KEEP_LLM,170,170,1,E0,8.7921,1,,0,,,runs_hybrid_v2/20251221_193934/logs/WP71__WP__t1.json
WP72,WP,1,LLM+VERIFY_PASS,448,448,1,E0,8.6698,1,1,0,16*28,448,runs_hybrid_v2/20251221_193934/logs/WP72__WP__t1.json
WP73,WP,1,LLM+VERIFY_PASS,95,95,1,E0,9.0615,1,1,0,110-15,95,runs_hybrid_v2/20251221_193934/logs/WP73__WP__t1.json
WP74,WP,1,LLM+VERIFY_PASS,25,25,1,E0,11.0203,1,1,0,150/6,25,runs_hybrid_v2/20251221_193934/logs/WP74__WP__t1.json
WP75,WP,1,LLM+VERIFY_PASS,1,1,1,E0,10.3472,1,1,0,6/6,1,runs_hybrid_v2/20251221_193934/logs/WP75__WP__t1.json
WP76,WP,1,LLM+VERIFY_PASS,63,63,1,E0,10.1869,1,1,0,9*7,63,runs_hybrid_v2/20251221_193934/logs/WP76__WP__t1.json
WP77,WP,1,LLM+VERIFY_PASS,9,9,1,E0,9.6251,1,1,0,72/8,9,runs_hybrid_v2/20251221_193934/logs/WP77__WP__t1.json
WP78,WP,1,LLM+VERIFY_PASS,45,45,1,E0,10.3334,1,1,0,60.0*(1-(25.0/100)),45,runs_hybrid_v2/20251221_193934/logs/WP78__WP__t1.json
WP79,WP,1,LLM+VERIFY_PASS,195,195,1,E0,9.7421,1,1,0,13*15,195,runs_hybrid_v2/20251221_193934/logs/WP79__WP__t1.json
WP80,WP,1,LLM+VERIFY_ERROR_KEEP_LLM,5,5,1,E0,12.2345,1,,0,,,runs_hybrid_v2/20251221_193934/logs/WP80__WP__t1.json
WP81,WP,1,LLM+VERIFY_ERROR_KEEP_LLM,44,44,1,E0,8.6334,1,,0,,,runs_hybrid_v2/20251221_193934/logs/WP81__WP__t1.json
WP82,WP,1,LLM+VERIFY_PASS,336,336,1,E0,8.7669,1,1,0,14*24,336,runs_hybrid_v2/20251221_193934/logs/WP82__WP__t1.json
WP83,WP,1,LLM+VERIFY_PASS,38,38,1,E0,8.9702,1,1,0,167-129,38,runs_hybrid_v2/20251221_193934/logs/WP83__WP__t1.json
WP84,WP,1,LLM+VERIFY_PASS,40,40,1,E0,10.9187,1,1,0,120/3,40,runs_hybrid_v2/20251221_193934/logs/WP84__WP__t1.json
WP85,WP,1,LLM+VERIFY_PASS,6,6,1,E0,8.8981,1,1,0,36/6,6,runs_hybrid_v2/20251221_193934/logs/WP85__WP__t1.json
WP86,WP,1,LLM+VERIFY_PASS,12,12,1,E0,9.9433,1,1,0,3*4,12,runs_hybrid_v2/20251221_193934/logs/WP86__WP__t1.json
WP87,WP,1,LLM+VERIFY_PASS,9,9,1,E0,9.8723,1,1,0,54/6,9,runs_hybrid_v2/20251221_193934/logs/WP87__WP__t1.json
WP88,WP,1,LLM+VERIFY_MISMATCH_KEEP_LLM,60,90,0,E1,10.8587,1,0,0,150.0*(1-(60.0/100)),60,runs_hybrid_v2/20251221_193934/logs/WP88__WP__t1.json
WP89,WP,1,LLM+VERIFY_PASS,91,91,1,E0,8.0125,1,1,0,13*7,91,runs_hybrid_v2/20251221_193934/logs/WP89__WP__t1.json
WP90,WP,1,LLM+VERIFY_ERROR_KEEP_LLM,41,41,1,E0,12.2886,1,,0,,,runs_hybrid_v2/20251221_193934/logs/WP90__WP__t1.json
WP91,WP,1,LLM+VERIFY_ERROR_KEEP_LLM,48,48,1,E0,8.6839,1,,0,,,runs_hybrid_v2/20251221_193934/logs/WP91__WP__t1.json
WP92,WP,1,LLM+VERIFY_PASS,96,96,1,E0,8.6076,1,1,0,8*12,96,runs_hybrid_v2/20251221_193934/logs/WP92__WP__t1.json
WP93,WP,1,LLM+VERIFY_PASS,7,7,1,E0,9.2567,1,1,0,84-77,7,runs_hybrid_v2/20251221_193934/logs/WP93__WP__t1.json
WP94,WP,1,LLM+VERIFY_PASS,120,120,1,E0,10.8361,1,1,0,240/2,120,runs_hybrid_v2/20251221_193934/logs/WP94__WP__t1.json
WP95,WP,1,LLM+VERIFY_PASS,2,2,1,E0,10.4755,1,1,0,16/8,2,runs_hybrid_v2/20251221_193934/logs/WP95__WP__t1.json
WP96,WP,1,LLM+VERIFY_PASS,32,32,1,E0,10.1907,1,1,0,4*8,32,runs_hybrid_v2/20251221_193934/logs/WP96__WP__t1.json
WP97,WP,1,LLM+VERIFY_PASS,2,2,1,E0,9.9673,1,1,0,18/9,2,runs_hybrid_v2/20251221_193934/logs/WP97__WP__t1.json
WP98,WP,1,LLM+VERIFY_PASS,108,108,1,E0,10.4514,1,1,0,120.0*(1-(10.0/100)),108,runs_hybrid_v2/20251221_193934/logs/WP98__WP__t1.json
WP99,WP,1,LLM+VERIFY_PASS,68,68,1,E0,9.9459,1,1,0,17*4,68,runs_hybrid_v2/20251221_193934/logs/WP99__WP__t1.json
WP100,WP,1,LLM+VERIFY_ERROR_KEEP_LLM,85,85,1,E0,12.1884,1,,0,,,runs_hybrid_v2/20251221_193934/logs/WP100__WP__t1.json
