id,category,variant,trial,status,latency_wall_s,latency_compute_s,expected_answer,final_output,correct,log_file
T3_0192,AR,phi2_server_grammar,1,ok,1.3954,1.3740,324,4,0,outputs/logs/t3_phi2_server_grammar_r3_20251227_192032/T3_0192__phi2_server_grammar__r1.json
T3_0192,AR,phi2_server_grammar,2,ok,1.3734,1.3684,324,4,0,outputs/logs/t3_phi2_server_grammar_r3_20251227_192032/T3_0192__phi2_server_grammar__r2.json
T3_0192,AR,phi2_server_grammar,3,ok,1.3758,1.3713,324,4,0,outputs/logs/t3_phi2_server_grammar_r3_20251227_192032/T3_0192__phi2_server_grammar__r3.json
T3_0208,AR,phi2_server_grammar,1,ok,1.8214,1.8041,931,589,0,outputs/logs/t3_phi2_server_grammar_r3_20251227_192032/T3_0208__phi2_server_grammar__r1.json
T3_0208,AR,phi2_server_grammar,2,ok,1.8039,1.7994,931,589,0,outputs/logs/t3_phi2_server_grammar_r3_20251227_192032/T3_0208__phi2_server_grammar__r2.json
T3_0208,AR,phi2_server_grammar,3,ok,1.8085,1.8041,931,589,0,outputs/logs/t3_phi2_server_grammar_r3_20251227_192032/T3_0208__phi2_server_grammar__r3.json
T3_0024,AR,phi2_server_grammar,1,ok,1.8141,1.7970,613,613,1,outputs/logs/t3_phi2_server_grammar_r3_20251227_192032/T3_0024__phi2_server_grammar__r1.json
T3_0024,AR,phi2_server_grammar,2,ok,1.8026,1.7982,613,613,1,outputs/logs/t3_phi2_server_grammar_r3_20251227_192032/T3_0024__phi2_server_grammar__r2.json
T3_0024,AR,phi2_server_grammar,3,ok,1.8037,1.7993,613,613,1,outputs/logs/t3_phi2_server_grammar_r3_20251227_192032/T3_0024__phi2_server_grammar__r3.json
T3_0012,AR,phi2_server_grammar,1,ok,1.8269,1.8103,632,752,0,outputs/logs/t3_phi2_server_grammar_r3_20251227_192032/T3_0012__phi2_server_grammar__r1.json
T3_0012,AR,phi2_server_grammar,2,ok,1.8084,1.8039,632,752,0,outputs/logs/t3_phi2_server_grammar_r3_20251227_192032/T3_0012__phi2_server_grammar__r2.json
T3_0012,AR,phi2_server_grammar,3,ok,1.8100,1.8056,632,752,0,outputs/logs/t3_phi2_server_grammar_r3_20251227_192032/T3_0012__phi2_server_grammar__r3.json
T3_0080,AR,phi2_server_grammar,1,ok,1.3689,1.3511,10000,10000,1,outputs/logs/t3_phi2_server_grammar_r3_20251227_192032/T3_0080__phi2_server_grammar__r1.json
T3_0080,AR,phi2_server_grammar,2,ok,1.3522,1.3478,10000,10000,1,outputs/logs/t3_phi2_server_grammar_r3_20251227_192032/T3_0080__phi2_server_grammar__r2.json
T3_0080,AR,phi2_server_grammar,3,ok,1.3590,1.3543,10000,10000,1,outputs/logs/t3_phi2_server_grammar_r3_20251227_192032/T3_0080__phi2_server_grammar__r3.json
T3_0249,AR,phi2_server_grammar,1,ok,1.8151,1.7978,-224,-28,0,outputs/logs/t3_phi2_server_grammar_r3_20251227_192032/T3_0249__phi2_server_grammar__r1.json
T3_0249,AR,phi2_server_grammar,2,ok,1.8011,1.7966,-224,-28,0,outputs/logs/t3_phi2_server_grammar_r3_20251227_192032/T3_0249__phi2_server_grammar__r2.json
T3_0249,AR,phi2_server_grammar,3,ok,1.8038,1.7994,-224,-28,0,outputs/logs/t3_phi2_server_grammar_r3_20251227_192032/T3_0249__phi2_server_grammar__r3.json
T3_0250,AR,phi2_server_grammar,1,ok,1.3653,1.3488,99,99,1,outputs/logs/t3_phi2_server_grammar_r3_20251227_192032/T3_0250__phi2_server_grammar__r1.json
T3_0250,AR,phi2_server_grammar,2,ok,1.3568,1.3523,99,99,1,outputs/logs/t3_phi2_server_grammar_r3_20251227_192032/T3_0250__phi2_server_grammar__r2.json
T3_0250,AR,phi2_server_grammar,3,ok,1.3576,1.3530,99,99,1,outputs/logs/t3_phi2_server_grammar_r3_20251227_192032/T3_0250__phi2_server_grammar__r3.json
T3_0144,AR,phi2_server_grammar,1,ok,1.8377,1.8211,499,441,0,outputs/logs/t3_phi2_server_grammar_r3_20251227_192032/T3_0144__phi2_server_grammar__r1.json
T3_0144,AR,phi2_server_grammar,2,ok,1.8072,1.8027,499,441,0,outputs/logs/t3_phi2_server_grammar_r3_20251227_192032/T3_0144__phi2_server_grammar__r2.json
T3_0144,AR,phi2_server_grammar,3,ok,1.8041,1.7990,499,441,0,outputs/logs/t3_phi2_server_grammar_r3_20251227_192032/T3_0144__phi2_server_grammar__r3.json
T3_0012,AR,phi2_server_grammar,1,ok,1.8251,1.8067,632,752,0,outputs/logs/t3_phi2_server_grammar_r3_20251227_192032/T3_0012__phi2_server_grammar__r1.json
T3_0012,AR,phi2_server_grammar,2,ok,1.8022,1.7978,632,752,0,outputs/logs/t3_phi2_server_grammar_r3_20251227_192032/T3_0012__phi2_server_grammar__r2.json
T3_0012,AR,phi2_server_grammar,3,ok,1.8084,1.8039,632,752,0,outputs/logs/t3_phi2_server_grammar_r3_20251227_192032/T3_0012__phi2_server_grammar__r3.json
T3_0189,AR,phi2_server_grammar,1,ok,1.8165,1.7988,4524,4446,0,outputs/logs/t3_phi2_server_grammar_r3_20251227_192032/T3_0189__phi2_server_grammar__r1.json
T3_0189,AR,phi2_server_grammar,2,ok,1.8054,1.8009,4524,4446,0,outputs/logs/t3_phi2_server_grammar_r3_20251227_192032/T3_0189__phi2_server_grammar__r2.json
T3_0189,AR,phi2_server_grammar,3,ok,1.8011,1.7967,4524,4446,0,outputs/logs/t3_phi2_server_grammar_r3_20251227_192032/T3_0189__phi2_server_grammar__r3.json
T3_0011,AR,phi2_server_grammar,1,ok,4.8411,4.8292,155,155,1,outputs/logs/t3_phi2_server_grammar_r3_20251227_192032/T3_0011__phi2_server_grammar__r1.json
T3_0011,AR,phi2_server_grammar,2,ok,1.3526,1.3482,155,155,1,outputs/logs/t3_phi2_server_grammar_r3_20251227_192032/T3_0011__phi2_server_grammar__r2.json
T3_0011,AR,phi2_server_grammar,3,ok,1.3528,1.3482,155,155,1,outputs/logs/t3_phi2_server_grammar_r3_20251227_192032/T3_0011__phi2_server_grammar__r3.json
T3_0012,AR,phi2_server_grammar,1,ok,1.8169,1.7993,632,752,0,outputs/logs/t3_phi2_server_grammar_r3_20251227_192032/T3_0012__phi2_server_grammar__r1.json
T3_0012,AR,phi2_server_grammar,2,ok,1.8071,1.8026,632,752,0,outputs/logs/t3_phi2_server_grammar_r3_20251227_192032/T3_0012__phi2_server_grammar__r2.json
T3_0012,AR,phi2_server_grammar,3,ok,1.8116,1.8069,632,752,0,outputs/logs/t3_phi2_server_grammar_r3_20251227_192032/T3_0012__phi2_server_grammar__r3.json
T3_0234,AR,phi2_server_grammar,1,ok,1.3788,1.3615,146,146,1,outputs/logs/t3_phi2_server_grammar_r3_20251227_192032/T3_0234__phi2_server_grammar__r1.json
T3_0234,AR,phi2_server_grammar,2,ok,1.3627,1.3580,146,146,1,outputs/logs/t3_phi2_server_grammar_r3_20251227_192032/T3_0234__phi2_server_grammar__r2.json
T3_0234,AR,phi2_server_grammar,3,ok,1.3598,1.3553,146,146,1,outputs/logs/t3_phi2_server_grammar_r3_20251227_192032/T3_0234__phi2_server_grammar__r3.json
T3_0147,AR,phi2_server_grammar,1,ok,3.2018,3.1849,227,443,0,outputs/logs/t3_phi2_server_grammar_r3_20251227_192032/T3_0147__phi2_server_grammar__r1.json
T3_0147,AR,phi2_server_grammar,2,ok,3.1523,3.1479,227,443,0,outputs/logs/t3_phi2_server_grammar_r3_20251227_192032/T3_0147__phi2_server_grammar__r2.json
T3_0147,AR,phi2_server_grammar,3,ok,3.1620,3.1575,227,443,0,outputs/logs/t3_phi2_server_grammar_r3_20251227_192032/T3_0147__phi2_server_grammar__r3.json
T3_0034,AR,phi2_server_grammar,1,ok,1.8216,1.8039,2744,2744,1,outputs/logs/t3_phi2_server_grammar_r3_20251227_192032/T3_0034__phi2_server_grammar__r1.json
T3_0034,AR,phi2_server_grammar,2,ok,1.8045,1.8001,2744,2744,1,outputs/logs/t3_phi2_server_grammar_r3_20251227_192032/T3_0034__phi2_server_grammar__r2.json
T3_0034,AR,phi2_server_grammar,3,ok,1.7998,1.7954,2744,2744,1,outputs/logs/t3_phi2_server_grammar_r3_20251227_192032/T3_0034__phi2_server_grammar__r3.json
T3_0232,AR,phi2_server_grammar,1,ok,5.3065,5.2902,912,882,0,outputs/logs/t3_phi2_server_grammar_r3_20251227_192032/T3_0232__phi2_server_grammar__r1.json
T3_0232,AR,phi2_server_grammar,2,ok,1.8124,1.8077,912,882,0,outputs/logs/t3_phi2_server_grammar_r3_20251227_192032/T3_0232__phi2_server_grammar__r2.json
T3_0232,AR,phi2_server_grammar,3,ok,1.8036,1.7988,912,882,0,outputs/logs/t3_phi2_server_grammar_r3_20251227_192032/T3_0232__phi2_server_grammar__r3.json
T3_0114,AR,phi2_server_grammar,1,ok,1.3682,1.3507,25,25,1,outputs/logs/t3_phi2_server_grammar_r3_20251227_192032/T3_0114__phi2_server_grammar__r1.json
T3_0114,AR,phi2_server_grammar,2,ok,1.3548,1.3503,25,25,1,outputs/logs/t3_phi2_server_grammar_r3_20251227_192032/T3_0114__phi2_server_grammar__r2.json
T3_0114,AR,phi2_server_grammar,3,ok,1.3522,1.3477,25,25,1,outputs/logs/t3_phi2_server_grammar_r3_20251227_192032/T3_0114__phi2_server_grammar__r3.json
T3_0024,AR,phi2_server_grammar,1,ok,1.8158,1.7999,613,613,1,outputs/logs/t3_phi2_server_grammar_r3_20251227_192032/T3_0024__phi2_server_grammar__r1.json
T3_0024,AR,phi2_server_grammar,2,ok,1.7986,1.7941,613,613,1,outputs/logs/t3_phi2_server_grammar_r3_20251227_192032/T3_0024__phi2_server_grammar__r2.json
T3_0024,AR,phi2_server_grammar,3,ok,1.8025,1.7980,613,613,1,outputs/logs/t3_phi2_server_grammar_r3_20251227_192032/T3_0024__phi2_server_grammar__r3.json
T3_0147,AR,phi2_server_grammar,1,ok,3.1646,3.1480,227,443,0,outputs/logs/t3_phi2_server_grammar_r3_20251227_192032/T3_0147__phi2_server_grammar__r1.json
T3_0147,AR,phi2_server_grammar,2,ok,3.1530,3.1486,227,443,0,outputs/logs/t3_phi2_server_grammar_r3_20251227_192032/T3_0147__phi2_server_grammar__r2.json
T3_0147,AR,phi2_server_grammar,3,ok,3.1492,3.1448,227,443,0,outputs/logs/t3_phi2_server_grammar_r3_20251227_192032/T3_0147__phi2_server_grammar__r3.json
T3_0233,AR,phi2_server_grammar,1,ok,1.8235,1.8059,922,998,0,outputs/logs/t3_phi2_server_grammar_r3_20251227_192032/T3_0233__phi2_server_grammar__r1.json
T3_0233,AR,phi2_server_grammar,2,ok,1.8025,1.7980,922,998,0,outputs/logs/t3_phi2_server_grammar_r3_20251227_192032/T3_0233__phi2_server_grammar__r2.json
T3_0233,AR,phi2_server_grammar,3,ok,1.8072,1.8028,922,998,0,outputs/logs/t3_phi2_server_grammar_r3_20251227_192032/T3_0233__phi2_server_grammar__r3.json
T3_0113,AR,phi2_server_grammar,1,ok,4.1774,4.1604,8,8,1,outputs/logs/t3_phi2_server_grammar_r3_20251227_192032/T3_0113__phi2_server_grammar__r1.json
T3_0113,AR,phi2_server_grammar,2,ok,1.3516,1.3472,8,8,1,outputs/logs/t3_phi2_server_grammar_r3_20251227_192032/T3_0113__phi2_server_grammar__r2.json
T3_0113,AR,phi2_server_grammar,3,ok,1.3542,1.3497,8,8,1,outputs/logs/t3_phi2_server_grammar_r3_20251227_192032/T3_0113__phi2_server_grammar__r3.json
T3_0193,AR,phi2_server_grammar,1,ok,5.3092,5.2920,1064,656,0,outputs/logs/t3_phi2_server_grammar_r3_20251227_192032/T3_0193__phi2_server_grammar__r1.json
T3_0193,AR,phi2_server_grammar,2,ok,1.8081,1.8037,1064,656,0,outputs/logs/t3_phi2_server_grammar_r3_20251227_192032/T3_0193__phi2_server_grammar__r2.json
T3_0193,AR,phi2_server_grammar,3,ok,1.8123,1.8078,1064,656,0,outputs/logs/t3_phi2_server_grammar_r3_20251227_192032/T3_0193__phi2_server_grammar__r3.json
T3_0231,AR,phi2_server_grammar,1,ok,1.8176,1.7994,648,572,0,outputs/logs/t3_phi2_server_grammar_r3_20251227_192032/T3_0231__phi2_server_grammar__r1.json
T3_0231,AR,phi2_server_grammar,2,ok,1.8043,1.7997,648,572,0,outputs/logs/t3_phi2_server_grammar_r3_20251227_192032/T3_0231__phi2_server_grammar__r2.json
T3_0231,AR,phi2_server_grammar,3,ok,1.8064,1.8019,648,572,0,outputs/logs/t3_phi2_server_grammar_r3_20251227_192032/T3_0231__phi2_server_grammar__r3.json
T3_0024,AR,phi2_server_grammar,1,ok,1.8113,1.7946,613,613,1,outputs/logs/t3_phi2_server_grammar_r3_20251227_192032/T3_0024__phi2_server_grammar__r1.json
T3_0024,AR,phi2_server_grammar,2,ok,1.8013,1.7969,613,613,1,outputs/logs/t3_phi2_server_grammar_r3_20251227_192032/T3_0024__phi2_server_grammar__r2.json
T3_0024,AR,phi2_server_grammar,3,ok,1.8006,1.7958,613,613,1,outputs/logs/t3_phi2_server_grammar_r3_20251227_192032/T3_0024__phi2_server_grammar__r3.json
T3_0134,AR,phi2_server_grammar,1,ok,1.8179,1.8019,-100,-36,0,outputs/logs/t3_phi2_server_grammar_r3_20251227_192032/T3_0134__phi2_server_grammar__r1.json
T3_0134,AR,phi2_server_grammar,2,ok,1.8093,1.8048,-100,-36,0,outputs/logs/t3_phi2_server_grammar_r3_20251227_192032/T3_0134__phi2_server_grammar__r2.json
T3_0134,AR,phi2_server_grammar,3,ok,1.8050,1.8006,-100,-36,0,outputs/logs/t3_phi2_server_grammar_r3_20251227_192032/T3_0134__phi2_server_grammar__r3.json
T3_0238,AR,phi2_server_grammar,1,ok,1.8220,1.8058,14641,14641,1,outputs/logs/t3_phi2_server_grammar_r3_20251227_192032/T3_0238__phi2_server_grammar__r1.json
T3_0238,AR,phi2_server_grammar,2,ok,1.8000,1.7956,14641,14641,1,outputs/logs/t3_phi2_server_grammar_r3_20251227_192032/T3_0238__phi2_server_grammar__r2.json
T3_0238,AR,phi2_server_grammar,3,ok,1.8072,1.8028,14641,14641,1,outputs/logs/t3_phi2_server_grammar_r3_20251227_192032/T3_0238__phi2_server_grammar__r3.json
T3_0239,AR,phi2_server_grammar,1,ok,1.3659,1.3502,267,255,0,outputs/logs/t3_phi2_server_grammar_r3_20251227_192032/T3_0239__phi2_server_grammar__r1.json
T3_0239,AR,phi2_server_grammar,2,ok,1.3591,1.3547,267,255,0,outputs/logs/t3_phi2_server_grammar_r3_20251227_192032/T3_0239__phi2_server_grammar__r2.json
T3_0239,AR,phi2_server_grammar,3,ok,1.3602,1.3556,267,255,0,outputs/logs/t3_phi2_server_grammar_r3_20251227_192032/T3_0239__phi2_server_grammar__r3.json
T3_0243,AR,phi2_server_grammar,1,ok,1.8140,1.7981,1817,1767,0,outputs/logs/t3_phi2_server_grammar_r3_20251227_192032/T3_0243__phi2_server_grammar__r1.json
T3_0243,AR,phi2_server_grammar,2,ok,1.8030,1.7986,1817,1767,0,outputs/logs/t3_phi2_server_grammar_r3_20251227_192032/T3_0243__phi2_server_grammar__r2.json
T3_0243,AR,phi2_server_grammar,3,ok,1.8037,1.7993,1817,1767,0,outputs/logs/t3_phi2_server_grammar_r3_20251227_192032/T3_0243__phi2_server_grammar__r3.json
T3_0090,AR,phi2_server_grammar,1,ok,4.1896,4.1739,78,78,1,outputs/logs/t3_phi2_server_grammar_r3_20251227_192032/T3_0090__phi2_server_grammar__r1.json
T3_0090,AR,phi2_server_grammar,2,ok,1.3509,1.3465,78,78,1,outputs/logs/t3_phi2_server_grammar_r3_20251227_192032/T3_0090__phi2_server_grammar__r2.json
T3_0090,AR,phi2_server_grammar,3,ok,1.3560,1.3515,78,78,1,outputs/logs/t3_phi2_server_grammar_r3_20251227_192032/T3_0090__phi2_server_grammar__r3.json
T3_0234,AR,phi2_server_grammar,1,ok,1.3612,1.3454,146,146,1,outputs/logs/t3_phi2_server_grammar_r3_20251227_192032/T3_0234__phi2_server_grammar__r1.json
T3_0234,AR,phi2_server_grammar,2,ok,1.3517,1.3467,146,146,1,outputs/logs/t3_phi2_server_grammar_r3_20251227_192032/T3_0234__phi2_server_grammar__r2.json
T3_0234,AR,phi2_server_grammar,3,ok,1.3543,1.3493,146,146,1,outputs/logs/t3_phi2_server_grammar_r3_20251227_192032/T3_0234__phi2_server_grammar__r3.json
T3_0031,AR,phi2_server_grammar,1,ok,1.3707,1.3490,504,504,1,outputs/logs/t3_phi2_server_grammar_r3_20251227_192032/T3_0031__phi2_server_grammar__r1.json
T3_0031,AR,phi2_server_grammar,2,ok,1.3525,1.3472,504,504,1,outputs/logs/t3_phi2_server_grammar_r3_20251227_192032/T3_0031__phi2_server_grammar__r2.json
T3_0031,AR,phi2_server_grammar,3,ok,1.3580,1.3536,504,504,1,outputs/logs/t3_phi2_server_grammar_r3_20251227_192032/T3_0031__phi2_server_grammar__r3.json
T3_0250,AR,phi2_server_grammar,1,ok,4.1932,4.1769,99,99,1,outputs/logs/t3_phi2_server_grammar_r3_20251227_192032/T3_0250__phi2_server_grammar__r1.json
T3_0250,AR,phi2_server_grammar,2,ok,1.3578,1.3533,99,99,1,outputs/logs/t3_phi2_server_grammar_r3_20251227_192032/T3_0250__phi2_server_grammar__r2.json
T3_0250,AR,phi2_server_grammar,3,ok,1.3632,1.3587,99,99,1,outputs/logs/t3_phi2_server_grammar_r3_20251227_192032/T3_0250__phi2_server_grammar__r3.json
T3_0247,AR,phi2_server_grammar,1,ok,1.8208,1.7980,675,707,0,outputs/logs/t3_phi2_server_grammar_r3_20251227_192032/T3_0247__phi2_server_grammar__r1.json
T3_0247,AR,phi2_server_grammar,2,ok,1.8049,1.7999,675,707,0,outputs/logs/t3_phi2_server_grammar_r3_20251227_192032/T3_0247__phi2_server_grammar__r2.json
T3_0247,AR,phi2_server_grammar,3,ok,1.8080,1.8036,675,707,0,outputs/logs/t3_phi2_server_grammar_r3_20251227_192032/T3_0247__phi2_server_grammar__r3.json
T3_0034,AR,phi2_server_grammar,1,ok,1.8185,1.8013,2744,2744,1,outputs/logs/t3_phi2_server_grammar_r3_20251227_192032/T3_0034__phi2_server_grammar__r1.json
T3_0034,AR,phi2_server_grammar,2,ok,1.8011,1.7968,2744,2744,1,outputs/logs/t3_phi2_server_grammar_r3_20251227_192032/T3_0034__phi2_server_grammar__r2.json
T3_0034,AR,phi2_server_grammar,3,ok,1.8042,1.7998,2744,2744,1,outputs/logs/t3_phi2_server_grammar_r3_20251227_192032/T3_0034__phi2_server_grammar__r3.json
T3_0080,AR,phi2_server_grammar,1,ok,1.3645,1.3492,10000,10000,1,outputs/logs/t3_phi2_server_grammar_r3_20251227_192032/T3_0080__phi2_server_grammar__r1.json
T3_0080,AR,phi2_server_grammar,2,ok,1.3614,1.3569,10000,10000,1,outputs/logs/t3_phi2_server_grammar_r3_20251227_192032/T3_0080__phi2_server_grammar__r2.json
T3_0080,AR,phi2_server_grammar,3,ok,1.3635,1.3589,10000,10000,1,outputs/logs/t3_phi2_server_grammar_r3_20251227_192032/T3_0080__phi2_server_grammar__r3.json
T3_0203,AR,phi2_server_grammar,1,ok,1.3736,1.3575,408,408,1,outputs/logs/t3_phi2_server_grammar_r3_20251227_192032/T3_0203__phi2_server_grammar__r1.json
T3_0203,AR,phi2_server_grammar,2,ok,1.3508,1.3449,408,408,1,outputs/logs/t3_phi2_server_grammar_r3_20251227_192032/T3_0203__phi2_server_grammar__r2.json
T3_0203,AR,phi2_server_grammar,3,ok,1.3532,1.3488,408,408,1,outputs/logs/t3_phi2_server_grammar_r3_20251227_192032/T3_0203__phi2_server_grammar__r3.json
T3_0220,AR,phi2_server_grammar,1,ok,1.8173,1.8010,866,933,0,outputs/logs/t3_phi2_server_grammar_r3_20251227_192032/T3_0220__phi2_server_grammar__r1.json
T3_0220,AR,phi2_server_grammar,2,ok,1.8028,1.7983,866,933,0,outputs/logs/t3_phi2_server_grammar_r3_20251227_192032/T3_0220__phi2_server_grammar__r2.json
T3_0220,AR,phi2_server_grammar,3,ok,1.8151,1.8106,866,933,0,outputs/logs/t3_phi2_server_grammar_r3_20251227_192032/T3_0220__phi2_server_grammar__r3.json
T3_0199,AR,phi2_server_grammar,1,ok,1.3724,1.3542,152,160,0,outputs/logs/t3_phi2_server_grammar_r3_20251227_192032/T3_0199__phi2_server_grammar__r1.json
T3_0199,AR,phi2_server_grammar,2,ok,1.3565,1.3521,152,160,0,outputs/logs/t3_phi2_server_grammar_r3_20251227_192032/T3_0199__phi2_server_grammar__r2.json
T3_0199,AR,phi2_server_grammar,3,ok,1.3579,1.3535,152,160,0,outputs/logs/t3_phi2_server_grammar_r3_20251227_192032/T3_0199__phi2_server_grammar__r3.json
T3_0090,AR,phi2_server_grammar,1,ok,1.3687,1.3522,78,78,1,outputs/logs/t3_phi2_server_grammar_r3_20251227_192032/T3_0090__phi2_server_grammar__r1.json
T3_0090,AR,phi2_server_grammar,2,ok,1.3537,1.3493,78,78,1,outputs/logs/t3_phi2_server_grammar_r3_20251227_192032/T3_0090__phi2_server_grammar__r2.json
T3_0090,AR,phi2_server_grammar,3,ok,1.3517,1.3472,78,78,1,outputs/logs/t3_phi2_server_grammar_r3_20251227_192032/T3_0090__phi2_server_grammar__r3.json
T3_0232,AR,phi2_server_grammar,1,ok,5.3144,5.2982,912,882,0,outputs/logs/t3_phi2_server_grammar_r3_20251227_192032/T3_0232__phi2_server_grammar__r1.json
T3_0232,AR,phi2_server_grammar,2,ok,1.8052,1.8007,912,882,0,outputs/logs/t3_phi2_server_grammar_r3_20251227_192032/T3_0232__phi2_server_grammar__r2.json
T3_0232,AR,phi2_server_grammar,3,ok,1.8027,1.7982,912,882,0,outputs/logs/t3_phi2_server_grammar_r3_20251227_192032/T3_0232__phi2_server_grammar__r3.json
T3_0175,AR,phi2_server_grammar,1,ok,1.8174,1.8001,5040,5040,1,outputs/logs/t3_phi2_server_grammar_r3_20251227_192032/T3_0175__phi2_server_grammar__r1.json
T3_0175,AR,phi2_server_grammar,2,ok,1.7999,1.7954,5040,5040,1,outputs/logs/t3_phi2_server_grammar_r3_20251227_192032/T3_0175__phi2_server_grammar__r2.json
T3_0175,AR,phi2_server_grammar,3,ok,1.8002,1.7958,5040,5040,1,outputs/logs/t3_phi2_server_grammar_r3_20251227_192032/T3_0175__phi2_server_grammar__r3.json
T3_0080,AR,phi2_server_grammar,1,ok,1.3783,1.3629,10000,10000,1,outputs/logs/t3_phi2_server_grammar_r3_20251227_192032/T3_0080__phi2_server_grammar__r1.json
T3_0080,AR,phi2_server_grammar,2,ok,1.3565,1.3520,10000,10000,1,outputs/logs/t3_phi2_server_grammar_r3_20251227_192032/T3_0080__phi2_server_grammar__r2.json
T3_0080,AR,phi2_server_grammar,3,ok,1.3512,1.3468,10000,10000,1,outputs/logs/t3_phi2_server_grammar_r3_20251227_192032/T3_0080__phi2_server_grammar__r3.json
T3_0196,AR,phi2_server_grammar,1,ok,4.1921,4.1758,130,130,1,outputs/logs/t3_phi2_server_grammar_r3_20251227_192032/T3_0196__phi2_server_grammar__r1.json
T3_0196,AR,phi2_server_grammar,2,ok,1.3566,1.3522,130,130,1,outputs/logs/t3_phi2_server_grammar_r3_20251227_192032/T3_0196__phi2_server_grammar__r2.json
T3_0196,AR,phi2_server_grammar,3,ok,1.3532,1.3487,130,130,1,outputs/logs/t3_phi2_server_grammar_r3_20251227_192032/T3_0196__phi2_server_grammar__r3.json
T3_0233,AR,phi2_server_grammar,1,ok,1.8169,1.8003,922,998,0,outputs/logs/t3_phi2_server_grammar_r3_20251227_192032/T3_0233__phi2_server_grammar__r1.json
T3_0233,AR,phi2_server_grammar,2,ok,1.8039,1.7994,922,998,0,outputs/logs/t3_phi2_server_grammar_r3_20251227_192032/T3_0233__phi2_server_grammar__r2.json
T3_0233,AR,phi2_server_grammar,3,ok,1.8070,1.8026,922,998,0,outputs/logs/t3_phi2_server_grammar_r3_20251227_192032/T3_0233__phi2_server_grammar__r3.json
T3_0220,AR,phi2_server_grammar,1,ok,1.8211,1.8032,866,933,0,outputs/logs/t3_phi2_server_grammar_r3_20251227_192032/T3_0220__phi2_server_grammar__r1.json
T3_0220,AR,phi2_server_grammar,2,ok,1.8046,1.8002,866,933,0,outputs/logs/t3_phi2_server_grammar_r3_20251227_192032/T3_0220__phi2_server_grammar__r2.json
T3_0220,AR,phi2_server_grammar,3,ok,1.8108,1.8062,866,933,0,outputs/logs/t3_phi2_server_grammar_r3_20251227_192032/T3_0220__phi2_server_grammar__r3.json
T3_0175,AR,phi2_server_grammar,1,ok,1.8131,1.7965,5040,5040,1,outputs/logs/t3_phi2_server_grammar_r3_20251227_192032/T3_0175__phi2_server_grammar__r1.json
T3_0175,AR,phi2_server_grammar,2,ok,1.8039,1.7995,5040,5040,1,outputs/logs/t3_phi2_server_grammar_r3_20251227_192032/T3_0175__phi2_server_grammar__r2.json
T3_0175,AR,phi2_server_grammar,3,ok,1.8016,1.7971,5040,5040,1,outputs/logs/t3_phi2_server_grammar_r3_20251227_192032/T3_0175__phi2_server_grammar__r3.json
T3_0189,AR,phi2_server_grammar,1,ok,1.8128,1.7974,4524,4446,0,outputs/logs/t3_phi2_server_grammar_r3_20251227_192032/T3_0189__phi2_server_grammar__r1.json
T3_0189,AR,phi2_server_grammar,2,ok,1.8081,1.8037,4524,4446,0,outputs/logs/t3_phi2_server_grammar_r3_20251227_192032/T3_0189__phi2_server_grammar__r2.json
T3_0189,AR,phi2_server_grammar,3,ok,1.8014,1.7970,4524,4446,0,outputs/logs/t3_phi2_server_grammar_r3_20251227_192032/T3_0189__phi2_server_grammar__r3.json
T3_0147,AR,phi2_server_grammar,1,ok,3.1668,3.1498,227,443,0,outputs/logs/t3_phi2_server_grammar_r3_20251227_192032/T3_0147__phi2_server_grammar__r1.json
T3_0147,AR,phi2_server_grammar,2,ok,3.1766,3.1716,227,443,0,outputs/logs/t3_phi2_server_grammar_r3_20251227_192032/T3_0147__phi2_server_grammar__r2.json
T3_0147,AR,phi2_server_grammar,3,ok,3.1569,3.1524,227,443,0,outputs/logs/t3_phi2_server_grammar_r3_20251227_192032/T3_0147__phi2_server_grammar__r3.json
T3_0159,AR,phi2_server_grammar,1,ok,4.1843,4.1661,180,180,1,outputs/logs/t3_phi2_server_grammar_r3_20251227_192032/T3_0159__phi2_server_grammar__r1.json
T3_0159,AR,phi2_server_grammar,2,ok,1.3579,1.3533,180,180,1,outputs/logs/t3_phi2_server_grammar_r3_20251227_192032/T3_0159__phi2_server_grammar__r2.json
T3_0159,AR,phi2_server_grammar,3,ok,1.3545,1.3500,180,180,1,outputs/logs/t3_phi2_server_grammar_r3_20251227_192032/T3_0159__phi2_server_grammar__r3.json
T3_0078,AR,phi2_server_grammar,1,ok,1.3626,1.3469,23,23,1,outputs/logs/t3_phi2_server_grammar_r3_20251227_192032/T3_0078__phi2_server_grammar__r1.json
T3_0078,AR,phi2_server_grammar,2,ok,1.3569,1.3524,23,23,1,outputs/logs/t3_phi2_server_grammar_r3_20251227_192032/T3_0078__phi2_server_grammar__r2.json
T3_0078,AR,phi2_server_grammar,3,ok,1.3549,1.3499,23,23,1,outputs/logs/t3_phi2_server_grammar_r3_20251227_192032/T3_0078__phi2_server_grammar__r3.json
T3_0086,AR,phi2_server_grammar,1,ok,1.8154,1.7999,14641,14641,1,outputs/logs/t3_phi2_server_grammar_r3_20251227_192032/T3_0086__phi2_server_grammar__r1.json
T3_0086,AR,phi2_server_grammar,2,ok,1.8009,1.7961,14641,14641,1,outputs/logs/t3_phi2_server_grammar_r3_20251227_192032/T3_0086__phi2_server_grammar__r2.json
T3_0086,AR,phi2_server_grammar,3,ok,1.8060,1.8017,14641,14641,1,outputs/logs/t3_phi2_server_grammar_r3_20251227_192032/T3_0086__phi2_server_grammar__r3.json
T3_0052,AR,phi2_server_grammar,1,ok,1.3658,1.3487,330,550,0,outputs/logs/t3_phi2_server_grammar_r3_20251227_192032/T3_0052__phi2_server_grammar__r1.json
T3_0052,AR,phi2_server_grammar,2,ok,1.3600,1.3556,330,550,0,outputs/logs/t3_phi2_server_grammar_r3_20251227_192032/T3_0052__phi2_server_grammar__r2.json
T3_0052,AR,phi2_server_grammar,3,ok,1.3636,1.3498,330,550,0,outputs/logs/t3_phi2_server_grammar_r3_20251227_192032/T3_0052__phi2_server_grammar__r3.json
T3_0231,AR,phi2_server_grammar,1,ok,1.8161,1.7979,648,572,0,outputs/logs/t3_phi2_server_grammar_r3_20251227_192032/T3_0231__phi2_server_grammar__r1.json
T3_0231,AR,phi2_server_grammar,2,ok,1.8057,1.8012,648,572,0,outputs/logs/t3_phi2_server_grammar_r3_20251227_192032/T3_0231__phi2_server_grammar__r2.json
T3_0231,AR,phi2_server_grammar,3,ok,1.8034,1.7989,648,572,0,outputs/logs/t3_phi2_server_grammar_r3_20251227_192032/T3_0231__phi2_server_grammar__r3.json
T3_0229,AR,phi2_server_grammar,1,ok,1.8148,1.7983,8645,8555,0,outputs/logs/t3_phi2_server_grammar_r3_20251227_192032/T3_0229__phi2_server_grammar__r1.json
T3_0229,AR,phi2_server_grammar,2,ok,1.8021,1.7976,8645,8555,0,outputs/logs/t3_phi2_server_grammar_r3_20251227_192032/T3_0229__phi2_server_grammar__r2.json
T3_0229,AR,phi2_server_grammar,3,ok,1.8100,1.8055,8645,8555,0,outputs/logs/t3_phi2_server_grammar_r3_20251227_192032/T3_0229__phi2_server_grammar__r3.json
T3_0071,AR,phi2_server_grammar,1,ok,1.3682,1.3527,12,12,1,outputs/logs/t3_phi2_server_grammar_r3_20251227_192032/T3_0071__phi2_server_grammar__r1.json
T3_0071,AR,phi2_server_grammar,2,ok,1.3515,1.3472,12,12,1,outputs/logs/t3_phi2_server_grammar_r3_20251227_192032/T3_0071__phi2_server_grammar__r2.json
T3_0071,AR,phi2_server_grammar,3,ok,1.3580,1.3537,12,12,1,outputs/logs/t3_phi2_server_grammar_r3_20251227_192032/T3_0071__phi2_server_grammar__r3.json
T3_0236,AR,phi2_server_grammar,1,ok,1.8181,1.8028,1060,1060,1,outputs/logs/t3_phi2_server_grammar_r3_20251227_192032/T3_0236__phi2_server_grammar__r1.json
T3_0236,AR,phi2_server_grammar,2,ok,1.8044,1.7999,1060,1060,1,outputs/logs/t3_phi2_server_grammar_r3_20251227_192032/T3_0236__phi2_server_grammar__r2.json
T3_0236,AR,phi2_server_grammar,3,ok,1.8017,1.7972,1060,1060,1,outputs/logs/t3_phi2_server_grammar_r3_20251227_192032/T3_0236__phi2_server_grammar__r3.json
T3_0180,AR,phi2_server_grammar,1,ok,4.1925,4.1756,55,55,1,outputs/logs/t3_phi2_server_grammar_r3_20251227_192032/T3_0180__phi2_server_grammar__r1.json
T3_0180,AR,phi2_server_grammar,2,ok,1.3525,1.3482,55,55,1,outputs/logs/t3_phi2_server_grammar_r3_20251227_192032/T3_0180__phi2_server_grammar__r2.json
T3_0180,AR,phi2_server_grammar,3,ok,1.3525,1.3481,55,55,1,outputs/logs/t3_phi2_server_grammar_r3_20251227_192032/T3_0180__phi2_server_grammar__r3.json
T3_0221,AR,phi2_server_grammar,1,ok,4.1893,4.1719,95,95,1,outputs/logs/t3_phi2_server_grammar_r3_20251227_192032/T3_0221__phi2_server_grammar__r1.json
T3_0221,AR,phi2_server_grammar,2,ok,1.3537,1.3493,95,95,1,outputs/logs/t3_phi2_server_grammar_r3_20251227_192032/T3_0221__phi2_server_grammar__r2.json
T3_0221,AR,phi2_server_grammar,3,ok,1.3563,1.3517,95,95,1,outputs/logs/t3_phi2_server_grammar_r3_20251227_192032/T3_0221__phi2_server_grammar__r3.json
T3_0248,AR,phi2_server_grammar,1,ok,1.3667,1.3505,25,25,1,outputs/logs/t3_phi2_server_grammar_r3_20251227_192032/T3_0248__phi2_server_grammar__r1.json
T3_0248,AR,phi2_server_grammar,2,ok,1.3539,1.3496,25,25,1,outputs/logs/t3_phi2_server_grammar_r3_20251227_192032/T3_0248__phi2_server_grammar__r2.json
T3_0248,AR,phi2_server_grammar,3,ok,1.3510,1.3466,25,25,1,outputs/logs/t3_phi2_server_grammar_r3_20251227_192032/T3_0248__phi2_server_grammar__r3.json
T3_0159,AR,phi2_server_grammar,1,ok,1.3663,1.3504,180,180,1,outputs/logs/t3_phi2_server_grammar_r3_20251227_192032/T3_0159__phi2_server_grammar__r1.json
T3_0159,AR,phi2_server_grammar,2,ok,1.3621,1.3574,180,180,1,outputs/logs/t3_phi2_server_grammar_r3_20251227_192032/T3_0159__phi2_server_grammar__r2.json
T3_0159,AR,phi2_server_grammar,3,ok,1.3563,1.3519,180,180,1,outputs/logs/t3_phi2_server_grammar_r3_20251227_192032/T3_0159__phi2_server_grammar__r3.json
T3_0216,AR,phi2_server_grammar,1,ok,1.3643,1.3476,180,240,0,outputs/logs/t3_phi2_server_grammar_r3_20251227_192032/T3_0216__phi2_server_grammar__r1.json
T3_0216,AR,phi2_server_grammar,2,ok,1.3584,1.3539,180,240,0,outputs/logs/t3_phi2_server_grammar_r3_20251227_192032/T3_0216__phi2_server_grammar__r2.json
T3_0216,AR,phi2_server_grammar,3,ok,1.3527,1.3483,180,240,0,outputs/logs/t3_phi2_server_grammar_r3_20251227_192032/T3_0216__phi2_server_grammar__r3.json
T3_0227,AR,phi2_server_grammar,1,ok,1.8204,1.8033,810,846,0,outputs/logs/t3_phi2_server_grammar_r3_20251227_192032/T3_0227__phi2_server_grammar__r1.json
T3_0227,AR,phi2_server_grammar,2,ok,1.8044,1.8000,810,846,0,outputs/logs/t3_phi2_server_grammar_r3_20251227_192032/T3_0227__phi2_server_grammar__r2.json
T3_0227,AR,phi2_server_grammar,3,ok,1.8059,1.8015,810,846,0,outputs/logs/t3_phi2_server_grammar_r3_20251227_192032/T3_0227__phi2_server_grammar__r3.json
T3_0177,AR,phi2_server_grammar,1,ok,1.8233,1.8062,649,657,0,outputs/logs/t3_phi2_server_grammar_r3_20251227_192032/T3_0177__phi2_server_grammar__r1.json
T3_0177,AR,phi2_server_grammar,2,ok,1.8113,1.8068,649,657,0,outputs/logs/t3_phi2_server_grammar_r3_20251227_192032/T3_0177__phi2_server_grammar__r2.json
T3_0177,AR,phi2_server_grammar,3,ok,1.8054,1.8010,649,657,0,outputs/logs/t3_phi2_server_grammar_r3_20251227_192032/T3_0177__phi2_server_grammar__r3.json
T3_0190,AR,phi2_server_grammar,1,ok,1.8316,1.8146,301,539,0,outputs/logs/t3_phi2_server_grammar_r3_20251227_192032/T3_0190__phi2_server_grammar__r1.json
T3_0190,AR,phi2_server_grammar,2,ok,1.8056,1.8013,301,539,0,outputs/logs/t3_phi2_server_grammar_r3_20251227_192032/T3_0190__phi2_server_grammar__r2.json
T3_0190,AR,phi2_server_grammar,3,ok,1.8097,1.8053,301,539,0,outputs/logs/t3_phi2_server_grammar_r3_20251227_192032/T3_0190__phi2_server_grammar__r3.json
T3_0065,AR,phi2_server_grammar,1,ok,4.1785,4.1617,32,32,1,outputs/logs/t3_phi2_server_grammar_r3_20251227_192032/T3_0065__phi2_server_grammar__r1.json
T3_0065,AR,phi2_server_grammar,2,ok,1.3540,1.3495,32,32,1,outputs/logs/t3_phi2_server_grammar_r3_20251227_192032/T3_0065__phi2_server_grammar__r2.json
T3_0065,AR,phi2_server_grammar,3,ok,1.3535,1.3491,32,32,1,outputs/logs/t3_phi2_server_grammar_r3_20251227_192032/T3_0065__phi2_server_grammar__r3.json
T3_0209,AR,phi2_server_grammar,1,ok,1.8259,1.8097,474,456,0,outputs/logs/t3_phi2_server_grammar_r3_20251227_192032/T3_0209__phi2_server_grammar__r1.json
T3_0209,AR,phi2_server_grammar,2,ok,1.8043,1.7999,474,456,0,outputs/logs/t3_phi2_server_grammar_r3_20251227_192032/T3_0209__phi2_server_grammar__r2.json
T3_0209,AR,phi2_server_grammar,3,ok,1.8033,1.7988,474,456,0,outputs/logs/t3_phi2_server_grammar_r3_20251227_192032/T3_0209__phi2_server_grammar__r3.json
T3_0067,AR,phi2_server_grammar,1,ok,1.8152,1.7987,4134,4134,1,outputs/logs/t3_phi2_server_grammar_r3_20251227_192032/T3_0067__phi2_server_grammar__r1.json
T3_0067,AR,phi2_server_grammar,2,ok,1.8004,1.7960,4134,4134,1,outputs/logs/t3_phi2_server_grammar_r3_20251227_192032/T3_0067__phi2_server_grammar__r2.json
T3_0067,AR,phi2_server_grammar,3,ok,1.8070,1.8026,4134,4134,1,outputs/logs/t3_phi2_server_grammar_r3_20251227_192032/T3_0067__phi2_server_grammar__r3.json
T3_0068,AR,phi2_server_grammar,1,ok,1.3682,1.3515,228,312,0,outputs/logs/t3_phi2_server_grammar_r3_20251227_192032/T3_0068__phi2_server_grammar__r1.json
T3_0068,AR,phi2_server_grammar,2,ok,1.3575,1.3530,228,312,0,outputs/logs/t3_phi2_server_grammar_r3_20251227_192032/T3_0068__phi2_server_grammar__r2.json
T3_0068,AR,phi2_server_grammar,3,ok,1.3551,1.3507,228,312,0,outputs/logs/t3_phi2_server_grammar_r3_20251227_192032/T3_0068__phi2_server_grammar__r3.json
T3_0069,AR,phi2_server_grammar,1,ok,4.6247,4.6118,276,408,0,outputs/logs/t3_phi2_server_grammar_r3_20251227_192032/T3_0069__phi2_server_grammar__r1.json
T3_0069,AR,phi2_server_grammar,2,ok,1.3524,1.3479,276,408,0,outputs/logs/t3_phi2_server_grammar_r3_20251227_192032/T3_0069__phi2_server_grammar__r2.json
T3_0069,AR,phi2_server_grammar,3,ok,1.3518,1.3474,276,408,0,outputs/logs/t3_phi2_server_grammar_r3_20251227_192032/T3_0069__phi2_server_grammar__r3.json
T3_0219,AR,phi2_server_grammar,1,ok,1.3683,1.3514,20,56,0,outputs/logs/t3_phi2_server_grammar_r3_20251227_192032/T3_0219__phi2_server_grammar__r1.json
T3_0219,AR,phi2_server_grammar,2,ok,1.3583,1.3539,20,56,0,outputs/logs/t3_phi2_server_grammar_r3_20251227_192032/T3_0219__phi2_server_grammar__r2.json
T3_0219,AR,phi2_server_grammar,3,ok,1.3563,1.3517,20,56,0,outputs/logs/t3_phi2_server_grammar_r3_20251227_192032/T3_0219__phi2_server_grammar__r3.json
T3_0071,AR,phi2_server_grammar,1,ok,1.3667,1.3502,12,12,1,outputs/logs/t3_phi2_server_grammar_r3_20251227_192032/T3_0071__phi2_server_grammar__r1.json
T3_0071,AR,phi2_server_grammar,2,ok,1.3522,1.3478,12,12,1,outputs/logs/t3_phi2_server_grammar_r3_20251227_192032/T3_0071__phi2_server_grammar__r2.json
T3_0071,AR,phi2_server_grammar,3,ok,1.3584,1.3539,12,12,1,outputs/logs/t3_phi2_server_grammar_r3_20251227_192032/T3_0071__phi2_server_grammar__r3.json
T3_0225,AR,phi2_server_grammar,1,ok,5.3104,5.2946,665,721,0,outputs/logs/t3_phi2_server_grammar_r3_20251227_192032/T3_0225__phi2_server_grammar__r1.json
T3_0225,AR,phi2_server_grammar,2,ok,1.8069,1.8024,665,721,0,outputs/logs/t3_phi2_server_grammar_r3_20251227_192032/T3_0225__phi2_server_grammar__r2.json
T3_0225,AR,phi2_server_grammar,3,ok,1.8122,1.8078,665,721,0,outputs/logs/t3_phi2_server_grammar_r3_20251227_192032/T3_0225__phi2_server_grammar__r3.json
T3_0113,AR,phi2_server_grammar,1,ok,4.1829,4.1655,8,8,1,outputs/logs/t3_phi2_server_grammar_r3_20251227_192032/T3_0113__phi2_server_grammar__r1.json
T3_0113,AR,phi2_server_grammar,2,ok,1.3532,1.3487,8,8,1,outputs/logs/t3_phi2_server_grammar_r3_20251227_192032/T3_0113__phi2_server_grammar__r2.json
T3_0113,AR,phi2_server_grammar,3,ok,1.3522,1.3477,8,8,1,outputs/logs/t3_phi2_server_grammar_r3_20251227_192032/T3_0113__phi2_server_grammar__r3.json
T3_0222,AR,phi2_server_grammar,1,ok,1.8191,1.8016,108,756,0,outputs/logs/t3_phi2_server_grammar_r3_20251227_192032/T3_0222__phi2_server_grammar__r1.json
T3_0222,AR,phi2_server_grammar,2,ok,1.8078,1.8033,108,756,0,outputs/logs/t3_phi2_server_grammar_r3_20251227_192032/T3_0222__phi2_server_grammar__r2.json
T3_0222,AR,phi2_server_grammar,3,ok,1.8034,1.7990,108,756,0,outputs/logs/t3_phi2_server_grammar_r3_20251227_192032/T3_0222__phi2_server_grammar__r3.json
T3_0177,AR,phi2_server_grammar,1,ok,1.8155,1.7981,649,657,0,outputs/logs/t3_phi2_server_grammar_r3_20251227_192032/T3_0177__phi2_server_grammar__r1.json
T3_0177,AR,phi2_server_grammar,2,ok,1.8125,1.8080,649,657,0,outputs/logs/t3_phi2_server_grammar_r3_20251227_192032/T3_0177__phi2_server_grammar__r2.json
T3_0177,AR,phi2_server_grammar,3,ok,1.7991,1.7946,649,657,0,outputs/logs/t3_phi2_server_grammar_r3_20251227_192032/T3_0177__phi2_server_grammar__r3.json
T3_0216,AR,phi2_server_grammar,1,ok,1.3642,1.3471,180,240,0,outputs/logs/t3_phi2_server_grammar_r3_20251227_192032/T3_0216__phi2_server_grammar__r1.json
T3_0216,AR,phi2_server_grammar,2,ok,1.3546,1.3501,180,240,0,outputs/logs/t3_phi2_server_grammar_r3_20251227_192032/T3_0216__phi2_server_grammar__r2.json
T3_0216,AR,phi2_server_grammar,3,ok,1.3517,1.3473,180,240,0,outputs/logs/t3_phi2_server_grammar_r3_20251227_192032/T3_0216__phi2_server_grammar__r3.json
T3_0113,AR,phi2_server_grammar,1,ok,1.3625,1.3462,8,8,1,outputs/logs/t3_phi2_server_grammar_r3_20251227_192032/T3_0113__phi2_server_grammar__r1.json
T3_0113,AR,phi2_server_grammar,2,ok,1.3500,1.3455,8,8,1,outputs/logs/t3_phi2_server_grammar_r3_20251227_192032/T3_0113__phi2_server_grammar__r2.json
T3_0113,AR,phi2_server_grammar,3,ok,1.3501,1.3456,8,8,1,outputs/logs/t3_phi2_server_grammar_r3_20251227_192032/T3_0113__phi2_server_grammar__r3.json
T3_0078,AR,phi2_server_grammar,1,ok,1.3723,1.3566,23,23,1,outputs/logs/t3_phi2_server_grammar_r3_20251227_192032/T3_0078__phi2_server_grammar__r1.json
T3_0078,AR,phi2_server_grammar,2,ok,1.3508,1.3464,23,23,1,outputs/logs/t3_phi2_server_grammar_r3_20251227_192032/T3_0078__phi2_server_grammar__r2.json
T3_0078,AR,phi2_server_grammar,3,ok,1.3500,1.3456,23,23,1,outputs/logs/t3_phi2_server_grammar_r3_20251227_192032/T3_0078__phi2_server_grammar__r3.json
T3_0159,AR,phi2_server_grammar,1,ok,1.3651,1.3491,180,180,1,outputs/logs/t3_phi2_server_grammar_r3_20251227_192032/T3_0159__phi2_server_grammar__r1.json
T3_0159,AR,phi2_server_grammar,2,ok,1.3505,1.3461,180,180,1,outputs/logs/t3_phi2_server_grammar_r3_20251227_192032/T3_0159__phi2_server_grammar__r2.json
T3_0159,AR,phi2_server_grammar,3,ok,1.3568,1.3521,180,180,1,outputs/logs/t3_phi2_server_grammar_r3_20251227_192032/T3_0159__phi2_server_grammar__r3.json
T3_0080,AR,phi2_server_grammar,1,ok,1.3644,1.3482,10000,10000,1,outputs/logs/t3_phi2_server_grammar_r3_20251227_192032/T3_0080__phi2_server_grammar__r1.json
T3_0080,AR,phi2_server_grammar,2,ok,1.3980,1.3935,10000,10000,1,outputs/logs/t3_phi2_server_grammar_r3_20251227_192032/T3_0080__phi2_server_grammar__r2.json
T3_0080,AR,phi2_server_grammar,3,ok,1.4021,1.3974,10000,10000,1,outputs/logs/t3_phi2_server_grammar_r3_20251227_192032/T3_0080__phi2_server_grammar__r3.json
T3_0180,AR,phi2_server_grammar,1,ok,1.4250,1.4086,55,55,1,outputs/logs/t3_phi2_server_grammar_r3_20251227_192032/T3_0180__phi2_server_grammar__r1.json
T3_0180,AR,phi2_server_grammar,2,ok,1.4064,1.4018,55,55,1,outputs/logs/t3_phi2_server_grammar_r3_20251227_192032/T3_0180__phi2_server_grammar__r2.json
T3_0180,AR,phi2_server_grammar,3,ok,1.4067,1.4021,55,55,1,outputs/logs/t3_phi2_server_grammar_r3_20251227_192032/T3_0180__phi2_server_grammar__r3.json
T3_0192,AR,phi2_server_grammar,1,ok,1.4201,1.4032,324,4,0,outputs/logs/t3_phi2_server_grammar_r3_20251227_192032/T3_0192__phi2_server_grammar__r1.json
T3_0192,AR,phi2_server_grammar,2,ok,1.4081,1.4035,324,4,0,outputs/logs/t3_phi2_server_grammar_r3_20251227_192032/T3_0192__phi2_server_grammar__r2.json
T3_0192,AR,phi2_server_grammar,3,ok,1.4030,1.3985,324,4,0,outputs/logs/t3_phi2_server_grammar_r3_20251227_192032/T3_0192__phi2_server_grammar__r3.json
T3_0209,AR,phi2_server_grammar,1,ok,1.8898,1.8726,474,456,0,outputs/logs/t3_phi2_server_grammar_r3_20251227_192032/T3_0209__phi2_server_grammar__r1.json
T3_0209,AR,phi2_server_grammar,2,ok,1.8763,1.8718,474,456,0,outputs/logs/t3_phi2_server_grammar_r3_20251227_192032/T3_0209__phi2_server_grammar__r2.json
T3_0209,AR,phi2_server_grammar,3,ok,1.8803,1.8757,474,456,0,outputs/logs/t3_phi2_server_grammar_r3_20251227_192032/T3_0209__phi2_server_grammar__r3.json
T3_0199,AR,phi2_server_grammar,1,ok,1.4234,1.4054,152,160,0,outputs/logs/t3_phi2_server_grammar_r3_20251227_192032/T3_0199__phi2_server_grammar__r1.json
T3_0199,AR,phi2_server_grammar,2,ok,1.4118,1.4073,152,160,0,outputs/logs/t3_phi2_server_grammar_r3_20251227_192032/T3_0199__phi2_server_grammar__r2.json
T3_0199,AR,phi2_server_grammar,3,ok,1.4078,1.4033,152,160,0,outputs/logs/t3_phi2_server_grammar_r3_20251227_192032/T3_0199__phi2_server_grammar__r3.json
T3_0244,AR,phi2_server_grammar,1,ok,1.8887,1.8711,657,567,0,outputs/logs/t3_phi2_server_grammar_r3_20251227_192032/T3_0244__phi2_server_grammar__r1.json
T3_0244,AR,phi2_server_grammar,2,ok,1.8777,1.8732,657,567,0,outputs/logs/t3_phi2_server_grammar_r3_20251227_192032/T3_0244__phi2_server_grammar__r2.json
T3_0244,AR,phi2_server_grammar,3,ok,1.8718,1.8673,657,567,0,outputs/logs/t3_phi2_server_grammar_r3_20251227_192032/T3_0244__phi2_server_grammar__r3.json
T3_0086,AR,phi2_server_grammar,1,ok,1.8945,1.8774,14641,14641,1,outputs/logs/t3_phi2_server_grammar_r3_20251227_192032/T3_0086__phi2_server_grammar__r1.json
T3_0086,AR,phi2_server_grammar,2,ok,1.8799,1.8753,14641,14641,1,outputs/logs/t3_phi2_server_grammar_r3_20251227_192032/T3_0086__phi2_server_grammar__r2.json
T3_0086,AR,phi2_server_grammar,3,ok,1.8682,1.8637,14641,14641,1,outputs/logs/t3_phi2_server_grammar_r3_20251227_192032/T3_0086__phi2_server_grammar__r3.json
T3_0087,AR,phi2_server_grammar,1,ok,1.8916,1.8744,225,1125,0,outputs/logs/t3_phi2_server_grammar_r3_20251227_192032/T3_0087__phi2_server_grammar__r1.json
T3_0087,AR,phi2_server_grammar,2,ok,1.8781,1.8735,225,1125,0,outputs/logs/t3_phi2_server_grammar_r3_20251227_192032/T3_0087__phi2_server_grammar__r2.json
T3_0087,AR,phi2_server_grammar,3,ok,1.8741,1.8695,225,1125,0,outputs/logs/t3_phi2_server_grammar_r3_20251227_192032/T3_0087__phi2_server_grammar__r3.json
T3_0242,AR,phi2_server_grammar,1,ok,1.4180,1.4009,216,216,1,outputs/logs/t3_phi2_server_grammar_r3_20251227_192032/T3_0242__phi2_server_grammar__r1.json
T3_0242,AR,phi2_server_grammar,2,ok,1.4161,1.4116,216,216,1,outputs/logs/t3_phi2_server_grammar_r3_20251227_192032/T3_0242__phi2_server_grammar__r2.json
T3_0242,AR,phi2_server_grammar,3,ok,1.4094,1.4047,216,216,1,outputs/logs/t3_phi2_server_grammar_r3_20251227_192032/T3_0242__phi2_server_grammar__r3.json
T3_0172,AR,phi2_server_grammar,1,ok,1.8896,1.8722,1264,992,0,outputs/logs/t3_phi2_server_grammar_r3_20251227_192032/T3_0172__phi2_server_grammar__r1.json
T3_0172,AR,phi2_server_grammar,2,ok,1.8833,1.8787,1264,992,0,outputs/logs/t3_phi2_server_grammar_r3_20251227_192032/T3_0172__phi2_server_grammar__r2.json
T3_0172,AR,phi2_server_grammar,3,ok,1.8764,1.8717,1264,992,0,outputs/logs/t3_phi2_server_grammar_r3_20251227_192032/T3_0172__phi2_server_grammar__r3.json
T3_0090,AR,phi2_server_grammar,1,ok,4.2008,4.1825,78,78,1,outputs/logs/t3_phi2_server_grammar_r3_20251227_192032/T3_0090__phi2_server_grammar__r1.json
T3_0090,AR,phi2_server_grammar,2,ok,1.3765,1.3720,78,78,1,outputs/logs/t3_phi2_server_grammar_r3_20251227_192032/T3_0090__phi2_server_grammar__r2.json
T3_0090,AR,phi2_server_grammar,3,ok,1.4017,1.3971,78,78,1,outputs/logs/t3_phi2_server_grammar_r3_20251227_192032/T3_0090__phi2_server_grammar__r3.json
T3_0169,AR,phi2_server_grammar,1,ok,1.8901,1.8727,412,438,0,outputs/logs/t3_phi2_server_grammar_r3_20251227_192032/T3_0169__phi2_server_grammar__r1.json
T3_0169,AR,phi2_server_grammar,2,ok,1.8737,1.8690,412,438,0,outputs/logs/t3_phi2_server_grammar_r3_20251227_192032/T3_0169__phi2_server_grammar__r2.json
T3_0169,AR,phi2_server_grammar,3,ok,1.8700,1.8655,412,438,0,outputs/logs/t3_phi2_server_grammar_r3_20251227_192032/T3_0169__phi2_server_grammar__r3.json
T3_0174,AR,phi2_server_grammar,1,ok,1.4175,1.4009,10,10,1,outputs/logs/t3_phi2_server_grammar_r3_20251227_192032/T3_0174__phi2_server_grammar__r1.json
T3_0174,AR,phi2_server_grammar,2,ok,1.4044,1.3999,10,10,1,outputs/logs/t3_phi2_server_grammar_r3_20251227_192032/T3_0174__phi2_server_grammar__r2.json
T3_0174,AR,phi2_server_grammar,3,ok,1.4067,1.4022,10,10,1,outputs/logs/t3_phi2_server_grammar_r3_20251227_192032/T3_0174__phi2_server_grammar__r3.json
T3_0093,AR,phi2_server_grammar,1,ok,1.8876,1.8712,18,-54,0,outputs/logs/t3_phi2_server_grammar_r3_20251227_192032/T3_0093__phi2_server_grammar__r1.json
T3_0093,AR,phi2_server_grammar,2,ok,1.8744,1.8699,18,-54,0,outputs/logs/t3_phi2_server_grammar_r3_20251227_192032/T3_0093__phi2_server_grammar__r2.json
T3_0093,AR,phi2_server_grammar,3,ok,1.8733,1.8688,18,-54,0,outputs/logs/t3_phi2_server_grammar_r3_20251227_192032/T3_0093__phi2_server_grammar__r3.json
T3_0231,AR,phi2_server_grammar,1,ok,1.8926,1.8748,648,572,0,outputs/logs/t3_phi2_server_grammar_r3_20251227_192032/T3_0231__phi2_server_grammar__r1.json
T3_0231,AR,phi2_server_grammar,2,ok,1.8783,1.8738,648,572,0,outputs/logs/t3_phi2_server_grammar_r3_20251227_192032/T3_0231__phi2_server_grammar__r2.json
T3_0231,AR,phi2_server_grammar,3,ok,1.8838,1.8793,648,572,0,outputs/logs/t3_phi2_server_grammar_r3_20251227_192032/T3_0231__phi2_server_grammar__r3.json
T3_0192,AR,phi2_server_grammar,1,ok,1.4247,1.4065,324,4,0,outputs/logs/t3_phi2_server_grammar_r3_20251227_192032/T3_0192__phi2_server_grammar__r1.json
T3_0192,AR,phi2_server_grammar,2,ok,1.4112,1.4047,324,4,0,outputs/logs/t3_phi2_server_grammar_r3_20251227_192032/T3_0192__phi2_server_grammar__r2.json
T3_0192,AR,phi2_server_grammar,3,ok,1.4058,1.4007,324,4,0,outputs/logs/t3_phi2_server_grammar_r3_20251227_192032/T3_0192__phi2_server_grammar__r3.json
T3_0228,AR,phi2_server_grammar,1,ok,1.8993,1.8768,97,-115,0,outputs/logs/t3_phi2_server_grammar_r3_20251227_192032/T3_0228__phi2_server_grammar__r1.json
T3_0228,AR,phi2_server_grammar,2,ok,1.8764,1.8715,97,-115,0,outputs/logs/t3_phi2_server_grammar_r3_20251227_192032/T3_0228__phi2_server_grammar__r2.json
T3_0228,AR,phi2_server_grammar,3,ok,1.8791,1.8739,97,-115,0,outputs/logs/t3_phi2_server_grammar_r3_20251227_192032/T3_0228__phi2_server_grammar__r3.json
T3_0221,AR,phi2_server_grammar,1,ok,4.1949,4.1751,95,95,1,outputs/logs/t3_phi2_server_grammar_r3_20251227_192032/T3_0221__phi2_server_grammar__r1.json
T3_0221,AR,phi2_server_grammar,2,ok,1.3808,1.3763,95,95,1,outputs/logs/t3_phi2_server_grammar_r3_20251227_192032/T3_0221__phi2_server_grammar__r2.json
T3_0221,AR,phi2_server_grammar,3,ok,1.4033,1.3988,95,95,1,outputs/logs/t3_phi2_server_grammar_r3_20251227_192032/T3_0221__phi2_server_grammar__r3.json
T3_0236,AR,phi2_server_grammar,1,ok,1.8892,1.8725,1060,1060,1,outputs/logs/t3_phi2_server_grammar_r3_20251227_192032/T3_0236__phi2_server_grammar__r1.json
T3_0236,AR,phi2_server_grammar,2,ok,1.8775,1.8729,1060,1060,1,outputs/logs/t3_phi2_server_grammar_r3_20251227_192032/T3_0236__phi2_server_grammar__r2.json
T3_0236,AR,phi2_server_grammar,3,ok,1.8686,1.8641,1060,1060,1,outputs/logs/t3_phi2_server_grammar_r3_20251227_192032/T3_0236__phi2_server_grammar__r3.json
T3_0249,AR,phi2_server_grammar,1,ok,1.8864,1.8695,-224,-28,0,outputs/logs/t3_phi2_server_grammar_r3_20251227_192032/T3_0249__phi2_server_grammar__r1.json
T3_0249,AR,phi2_server_grammar,2,ok,1.8742,1.8696,-224,-28,0,outputs/logs/t3_phi2_server_grammar_r3_20251227_192032/T3_0249__phi2_server_grammar__r2.json
T3_0249,AR,phi2_server_grammar,3,ok,1.8737,1.8690,-224,-28,0,outputs/logs/t3_phi2_server_grammar_r3_20251227_192032/T3_0249__phi2_server_grammar__r3.json
T3_0199,AR,phi2_server_grammar,1,ok,1.4216,1.4043,152,160,0,outputs/logs/t3_phi2_server_grammar_r3_20251227_192032/T3_0199__phi2_server_grammar__r1.json
T3_0199,AR,phi2_server_grammar,2,ok,1.4048,1.4002,152,160,0,outputs/logs/t3_phi2_server_grammar_r3_20251227_192032/T3_0199__phi2_server_grammar__r2.json
T3_0199,AR,phi2_server_grammar,3,ok,1.4046,1.4002,152,160,0,outputs/logs/t3_phi2_server_grammar_r3_20251227_192032/T3_0199__phi2_server_grammar__r3.json
T3_0161,AR,phi2_server_grammar,1,ok,4.2079,4.1914,108,108,1,outputs/logs/t3_phi2_server_grammar_r3_20251227_192032/T3_0161__phi2_server_grammar__r1.json
T3_0161,AR,phi2_server_grammar,2,ok,1.4026,1.3981,108,108,1,outputs/logs/t3_phi2_server_grammar_r3_20251227_192032/T3_0161__phi2_server_grammar__r2.json
T3_0161,AR,phi2_server_grammar,3,ok,1.4081,1.4036,108,108,1,outputs/logs/t3_phi2_server_grammar_r3_20251227_192032/T3_0161__phi2_server_grammar__r3.json
T3_0159,AR,phi2_server_grammar,1,ok,1.4189,1.4022,180,180,1,outputs/logs/t3_phi2_server_grammar_r3_20251227_192032/T3_0159__phi2_server_grammar__r1.json
T3_0159,AR,phi2_server_grammar,2,ok,1.4051,1.4007,180,180,1,outputs/logs/t3_phi2_server_grammar_r3_20251227_192032/T3_0159__phi2_server_grammar__r2.json
T3_0159,AR,phi2_server_grammar,3,ok,1.4040,1.3995,180,180,1,outputs/logs/t3_phi2_server_grammar_r3_20251227_192032/T3_0159__phi2_server_grammar__r3.json
T3_0172,AR,phi2_server_grammar,1,ok,1.8852,1.8674,1264,992,0,outputs/logs/t3_phi2_server_grammar_r3_20251227_192032/T3_0172__phi2_server_grammar__r1.json
T3_0172,AR,phi2_server_grammar,2,ok,1.8766,1.8720,1264,992,0,outputs/logs/t3_phi2_server_grammar_r3_20251227_192032/T3_0172__phi2_server_grammar__r2.json
T3_0172,AR,phi2_server_grammar,3,ok,1.8782,1.8736,1264,992,0,outputs/logs/t3_phi2_server_grammar_r3_20251227_192032/T3_0172__phi2_server_grammar__r3.json
T3_0192,AR,phi2_server_grammar,1,ok,1.4249,1.4050,324,4,0,outputs/logs/t3_phi2_server_grammar_r3_20251227_192032/T3_0192__phi2_server_grammar__r1.json
T3_0192,AR,phi2_server_grammar,2,ok,1.4054,1.4008,324,4,0,outputs/logs/t3_phi2_server_grammar_r3_20251227_192032/T3_0192__phi2_server_grammar__r2.json
T3_0192,AR,phi2_server_grammar,3,ok,1.4061,1.4016,324,4,0,outputs/logs/t3_phi2_server_grammar_r3_20251227_192032/T3_0192__phi2_server_grammar__r3.json
T3_0237,AR,phi2_server_grammar,1,ok,1.4196,1.4024,9,9,1,outputs/logs/t3_phi2_server_grammar_r3_20251227_192032/T3_0237__phi2_server_grammar__r1.json
T3_0237,AR,phi2_server_grammar,2,ok,1.4119,1.4074,9,9,1,outputs/logs/t3_phi2_server_grammar_r3_20251227_192032/T3_0237__phi2_server_grammar__r2.json
T3_0237,AR,phi2_server_grammar,3,ok,1.4051,1.4006,9,9,1,outputs/logs/t3_phi2_server_grammar_r3_20251227_192032/T3_0237__phi2_server_grammar__r3.json
T3_0134,AR,phi2_server_grammar,1,ok,1.8912,1.8735,-100,-36,0,outputs/logs/t3_phi2_server_grammar_r3_20251227_192032/T3_0134__phi2_server_grammar__r1.json
T3_0134,AR,phi2_server_grammar,2,ok,1.8748,1.8700,-100,-36,0,outputs/logs/t3_phi2_server_grammar_r3_20251227_192032/T3_0134__phi2_server_grammar__r2.json
T3_0134,AR,phi2_server_grammar,3,ok,1.8774,1.8720,-100,-36,0,outputs/logs/t3_phi2_server_grammar_r3_20251227_192032/T3_0134__phi2_server_grammar__r3.json
T3_0250,AR,phi2_server_grammar,1,ok,4.1946,4.1702,99,99,1,outputs/logs/t3_phi2_server_grammar_r3_20251227_192032/T3_0250__phi2_server_grammar__r1.json
T3_0250,AR,phi2_server_grammar,2,ok,1.3994,1.3944,99,99,1,outputs/logs/t3_phi2_server_grammar_r3_20251227_192032/T3_0250__phi2_server_grammar__r2.json
T3_0250,AR,phi2_server_grammar,3,ok,1.4118,1.4067,99,99,1,outputs/logs/t3_phi2_server_grammar_r3_20251227_192032/T3_0250__phi2_server_grammar__r3.json
T3_0169,AR,phi2_server_grammar,1,ok,1.8946,1.8678,412,438,0,outputs/logs/t3_phi2_server_grammar_r3_20251227_192032/T3_0169__phi2_server_grammar__r1.json
T3_0169,AR,phi2_server_grammar,2,ok,1.8741,1.8693,412,438,0,outputs/logs/t3_phi2_server_grammar_r3_20251227_192032/T3_0169__phi2_server_grammar__r2.json
T3_0169,AR,phi2_server_grammar,3,ok,1.8741,1.8695,412,438,0,outputs/logs/t3_phi2_server_grammar_r3_20251227_192032/T3_0169__phi2_server_grammar__r3.json
T3_0205,AR,phi2_server_grammar,1,ok,1.4286,1.4106,281,287,0,outputs/logs/t3_phi2_server_grammar_r3_20251227_192032/T3_0205__phi2_server_grammar__r1.json
T3_0205,AR,phi2_server_grammar,2,ok,1.4099,1.4054,281,287,0,outputs/logs/t3_phi2_server_grammar_r3_20251227_192032/T3_0205__phi2_server_grammar__r2.json
T3_0205,AR,phi2_server_grammar,3,ok,1.4196,1.4150,281,287,0,outputs/logs/t3_phi2_server_grammar_r3_20251227_192032/T3_0205__phi2_server_grammar__r3.json
T3_0222,AR,phi2_server_grammar,1,ok,1.8890,1.8715,108,756,0,outputs/logs/t3_phi2_server_grammar_r3_20251227_192032/T3_0222__phi2_server_grammar__r1.json
T3_0222,AR,phi2_server_grammar,2,ok,1.8772,1.8726,108,756,0,outputs/logs/t3_phi2_server_grammar_r3_20251227_192032/T3_0222__phi2_server_grammar__r2.json
T3_0222,AR,phi2_server_grammar,3,ok,1.8816,1.8769,108,756,0,outputs/logs/t3_phi2_server_grammar_r3_20251227_192032/T3_0222__phi2_server_grammar__r3.json
T3_0201,AR,phi2_server_grammar,1,ok,4.1902,4.1725,44,44,1,outputs/logs/t3_phi2_server_grammar_r3_20251227_192032/T3_0201__phi2_server_grammar__r1.json
T3_0201,AR,phi2_server_grammar,2,ok,1.4044,1.3999,44,44,1,outputs/logs/t3_phi2_server_grammar_r3_20251227_192032/T3_0201__phi2_server_grammar__r2.json
T3_0201,AR,phi2_server_grammar,3,ok,1.4082,1.4037,44,44,1,outputs/logs/t3_phi2_server_grammar_r3_20251227_192032/T3_0201__phi2_server_grammar__r3.json
T3_0212,AR,phi2_server_grammar,1,ok,1.8890,1.8724,729,729,1,outputs/logs/t3_phi2_server_grammar_r3_20251227_192032/T3_0212__phi2_server_grammar__r1.json
T3_0212,AR,phi2_server_grammar,2,ok,1.8838,1.8792,729,729,1,outputs/logs/t3_phi2_server_grammar_r3_20251227_192032/T3_0212__phi2_server_grammar__r2.json
T3_0212,AR,phi2_server_grammar,3,ok,1.8695,1.8650,729,729,1,outputs/logs/t3_phi2_server_grammar_r3_20251227_192032/T3_0212__phi2_server_grammar__r3.json
T3_0113,AR,phi2_server_grammar,1,ok,4.2344,4.2174,8,8,1,outputs/logs/t3_phi2_server_grammar_r3_20251227_192032/T3_0113__phi2_server_grammar__r1.json
T3_0113,AR,phi2_server_grammar,2,ok,1.4097,1.4047,8,8,1,outputs/logs/t3_phi2_server_grammar_r3_20251227_192032/T3_0113__phi2_server_grammar__r2.json
T3_0113,AR,phi2_server_grammar,3,ok,1.4078,1.4032,8,8,1,outputs/logs/t3_phi2_server_grammar_r3_20251227_192032/T3_0113__phi2_server_grammar__r3.json
T3_0114,AR,phi2_server_grammar,1,ok,1.4199,1.4030,25,25,1,outputs/logs/t3_phi2_server_grammar_r3_20251227_192032/T3_0114__phi2_server_grammar__r1.json
T3_0114,AR,phi2_server_grammar,2,ok,1.4047,1.4001,25,25,1,outputs/logs/t3_phi2_server_grammar_r3_20251227_192032/T3_0114__phi2_server_grammar__r2.json
T3_0114,AR,phi2_server_grammar,3,ok,1.4038,1.3991,25,25,1,outputs/logs/t3_phi2_server_grammar_r3_20251227_192032/T3_0114__phi2_server_grammar__r3.json
T3_0122,AR,phi2_server_grammar,1,ok,1.8855,1.8684,696,896,0,outputs/logs/t3_phi2_server_grammar_r3_20251227_192032/T3_0122__phi2_server_grammar__r1.json
T3_0122,AR,phi2_server_grammar,2,ok,1.8805,1.8759,696,896,0,outputs/logs/t3_phi2_server_grammar_r3_20251227_192032/T3_0122__phi2_server_grammar__r2.json
T3_0122,AR,phi2_server_grammar,3,ok,1.8766,1.8718,696,896,0,outputs/logs/t3_phi2_server_grammar_r3_20251227_192032/T3_0122__phi2_server_grammar__r3.json
T3_0241,AR,phi2_server_grammar,1,ok,1.8903,1.8722,32,-28,0,outputs/logs/t3_phi2_server_grammar_r3_20251227_192032/T3_0241__phi2_server_grammar__r1.json
T3_0241,AR,phi2_server_grammar,2,ok,1.8723,1.8676,32,-28,0,outputs/logs/t3_phi2_server_grammar_r3_20251227_192032/T3_0241__phi2_server_grammar__r2.json
T3_0241,AR,phi2_server_grammar,3,ok,1.8879,1.8822,32,-28,0,outputs/logs/t3_phi2_server_grammar_r3_20251227_192032/T3_0241__phi2_server_grammar__r3.json
T3_0172,AR,phi2_server_grammar,1,ok,1.8924,1.8693,1264,992,0,outputs/logs/t3_phi2_server_grammar_r3_20251227_192032/T3_0172__phi2_server_grammar__r1.json
T3_0172,AR,phi2_server_grammar,2,ok,1.8756,1.8703,1264,992,0,outputs/logs/t3_phi2_server_grammar_r3_20251227_192032/T3_0172__phi2_server_grammar__r2.json
T3_0172,AR,phi2_server_grammar,3,ok,1.8827,1.8768,1264,992,0,outputs/logs/t3_phi2_server_grammar_r3_20251227_192032/T3_0172__phi2_server_grammar__r3.json
T3_0219,AR,phi2_server_grammar,1,ok,1.4327,1.4085,20,56,0,outputs/logs/t3_phi2_server_grammar_r3_20251227_192032/T3_0219__phi2_server_grammar__r1.json
T3_0219,AR,phi2_server_grammar,2,ok,1.4046,1.3998,20,56,0,outputs/logs/t3_phi2_server_grammar_r3_20251227_192032/T3_0219__phi2_server_grammar__r2.json
T3_0219,AR,phi2_server_grammar,3,ok,1.4050,1.4003,20,56,0,outputs/logs/t3_phi2_server_grammar_r3_20251227_192032/T3_0219__phi2_server_grammar__r3.json
T3_0233,AR,phi2_server_grammar,1,ok,1.8912,1.8723,922,998,0,outputs/logs/t3_phi2_server_grammar_r3_20251227_192032/T3_0233__phi2_server_grammar__r1.json
T3_0233,AR,phi2_server_grammar,2,ok,1.8771,1.8725,922,998,0,outputs/logs/t3_phi2_server_grammar_r3_20251227_192032/T3_0233__phi2_server_grammar__r2.json
T3_0233,AR,phi2_server_grammar,3,ok,1.8861,1.8815,922,998,0,outputs/logs/t3_phi2_server_grammar_r3_20251227_192032/T3_0233__phi2_server_grammar__r3.json
T3_0214,AR,phi2_server_grammar,1,ok,1.4236,1.4009,28,28,1,outputs/logs/t3_phi2_server_grammar_r3_20251227_192032/T3_0214__phi2_server_grammar__r1.json
T3_0214,AR,phi2_server_grammar,2,ok,1.4069,1.4020,28,28,1,outputs/logs/t3_phi2_server_grammar_r3_20251227_192032/T3_0214__phi2_server_grammar__r2.json
T3_0214,AR,phi2_server_grammar,3,ok,1.4062,1.4013,28,28,1,outputs/logs/t3_phi2_server_grammar_r3_20251227_192032/T3_0214__phi2_server_grammar__r3.json
T3_0239,AR,phi2_server_grammar,1,ok,1.4227,1.4015,267,255,0,outputs/logs/t3_phi2_server_grammar_r3_20251227_192032/T3_0239__phi2_server_grammar__r1.json
T3_0239,AR,phi2_server_grammar,2,ok,1.4051,1.4003,267,255,0,outputs/logs/t3_phi2_server_grammar_r3_20251227_192032/T3_0239__phi2_server_grammar__r2.json
T3_0239,AR,phi2_server_grammar,3,ok,1.4078,1.4030,267,255,0,outputs/logs/t3_phi2_server_grammar_r3_20251227_192032/T3_0239__phi2_server_grammar__r3.json
T3_0122,AR,phi2_server_grammar,1,ok,1.8901,1.8704,696,896,0,outputs/logs/t3_phi2_server_grammar_r3_20251227_192032/T3_0122__phi2_server_grammar__r1.json
T3_0122,AR,phi2_server_grammar,2,ok,1.8765,1.8716,696,896,0,outputs/logs/t3_phi2_server_grammar_r3_20251227_192032/T3_0122__phi2_server_grammar__r2.json
T3_0122,AR,phi2_server_grammar,3,ok,1.8754,1.8704,696,896,0,outputs/logs/t3_phi2_server_grammar_r3_20251227_192032/T3_0122__phi2_server_grammar__r3.json
T3_0233,AR,phi2_server_grammar,1,ok,1.8866,1.8680,922,998,0,outputs/logs/t3_phi2_server_grammar_r3_20251227_192032/T3_0233__phi2_server_grammar__r1.json
T3_0233,AR,phi2_server_grammar,2,ok,1.8724,1.8674,922,998,0,outputs/logs/t3_phi2_server_grammar_r3_20251227_192032/T3_0233__phi2_server_grammar__r2.json
T3_0233,AR,phi2_server_grammar,3,ok,1.8784,1.8735,922,998,0,outputs/logs/t3_phi2_server_grammar_r3_20251227_192032/T3_0233__phi2_server_grammar__r3.json
T3_0243,AR,phi2_server_grammar,1,ok,1.8893,1.8708,1817,1767,0,outputs/logs/t3_phi2_server_grammar_r3_20251227_192032/T3_0243__phi2_server_grammar__r1.json
T3_0243,AR,phi2_server_grammar,2,ok,1.8802,1.8751,1817,1767,0,outputs/logs/t3_phi2_server_grammar_r3_20251227_192032/T3_0243__phi2_server_grammar__r2.json
T3_0243,AR,phi2_server_grammar,3,ok,1.8820,1.8773,1817,1767,0,outputs/logs/t3_phi2_server_grammar_r3_20251227_192032/T3_0243__phi2_server_grammar__r3.json
T3_0146,AR,phi2_server_grammar,1,ok,1.4381,1.4212,980,980,1,outputs/logs/t3_phi2_server_grammar_r3_20251227_192032/T3_0146__phi2_server_grammar__r1.json
T3_0146,AR,phi2_server_grammar,2,ok,1.4031,1.3985,980,980,1,outputs/logs/t3_phi2_server_grammar_r3_20251227_192032/T3_0146__phi2_server_grammar__r2.json
T3_0146,AR,phi2_server_grammar,3,ok,1.4095,1.4049,980,980,1,outputs/logs/t3_phi2_server_grammar_r3_20251227_192032/T3_0146__phi2_server_grammar__r3.json
T3_0126,AR,phi2_server_grammar,1,ok,1.9000,1.8820,1116,918,0,outputs/logs/t3_phi2_server_grammar_r3_20251227_192032/T3_0126__phi2_server_grammar__r1.json
T3_0126,AR,phi2_server_grammar,2,ok,1.8798,1.8749,1116,918,0,outputs/logs/t3_phi2_server_grammar_r3_20251227_192032/T3_0126__phi2_server_grammar__r2.json
T3_0126,AR,phi2_server_grammar,3,ok,1.8703,1.8654,1116,918,0,outputs/logs/t3_phi2_server_grammar_r3_20251227_192032/T3_0126__phi2_server_grammar__r3.json
T3_0174,AR,phi2_server_grammar,1,ok,1.4253,1.4070,10,10,1,outputs/logs/t3_phi2_server_grammar_r3_20251227_192032/T3_0174__phi2_server_grammar__r1.json
T3_0174,AR,phi2_server_grammar,2,ok,1.4053,1.4004,10,10,1,outputs/logs/t3_phi2_server_grammar_r3_20251227_192032/T3_0174__phi2_server_grammar__r2.json
T3_0174,AR,phi2_server_grammar,3,ok,1.4032,1.3985,10,10,1,outputs/logs/t3_phi2_server_grammar_r3_20251227_192032/T3_0174__phi2_server_grammar__r3.json
T3_0180,AR,phi2_server_grammar,1,ok,4.2337,4.2165,55,55,1,outputs/logs/t3_phi2_server_grammar_r3_20251227_192032/T3_0180__phi2_server_grammar__r1.json
T3_0180,AR,phi2_server_grammar,2,ok,1.4044,1.3995,55,55,1,outputs/logs/t3_phi2_server_grammar_r3_20251227_192032/T3_0180__phi2_server_grammar__r2.json
T3_0180,AR,phi2_server_grammar,3,ok,1.4058,1.4001,55,55,1,outputs/logs/t3_phi2_server_grammar_r3_20251227_192032/T3_0180__phi2_server_grammar__r3.json
T3_0129,AR,phi2_server_grammar,1,ok,1.4174,1.3986,8,8,1,outputs/logs/t3_phi2_server_grammar_r3_20251227_192032/T3_0129__phi2_server_grammar__r1.json
T3_0129,AR,phi2_server_grammar,2,ok,1.4034,1.3985,8,8,1,outputs/logs/t3_phi2_server_grammar_r3_20251227_192032/T3_0129__phi2_server_grammar__r2.json
T3_0129,AR,phi2_server_grammar,3,ok,1.4051,1.3995,8,8,1,outputs/logs/t3_phi2_server_grammar_r3_20251227_192032/T3_0129__phi2_server_grammar__r3.json
T3_0229,AR,phi2_server_grammar,1,ok,1.8869,1.8687,8645,8555,0,outputs/logs/t3_phi2_server_grammar_r3_20251227_192032/T3_0229__phi2_server_grammar__r1.json
T3_0229,AR,phi2_server_grammar,2,ok,1.8934,1.8880,8645,8555,0,outputs/logs/t3_phi2_server_grammar_r3_20251227_192032/T3_0229__phi2_server_grammar__r2.json
T3_0229,AR,phi2_server_grammar,3,ok,1.8752,1.8700,8645,8555,0,outputs/logs/t3_phi2_server_grammar_r3_20251227_192032/T3_0229__phi2_server_grammar__r3.json
T3_0144,AR,phi2_server_grammar,1,ok,1.8949,1.8768,499,441,0,outputs/logs/t3_phi2_server_grammar_r3_20251227_192032/T3_0144__phi2_server_grammar__r1.json
T3_0144,AR,phi2_server_grammar,2,ok,1.8763,1.8714,499,441,0,outputs/logs/t3_phi2_server_grammar_r3_20251227_192032/T3_0144__phi2_server_grammar__r2.json
T3_0144,AR,phi2_server_grammar,3,ok,1.8816,1.8767,499,441,0,outputs/logs/t3_phi2_server_grammar_r3_20251227_192032/T3_0144__phi2_server_grammar__r3.json
T3_0249,AR,phi2_server_grammar,1,ok,1.8930,1.8745,-224,-28,0,outputs/logs/t3_phi2_server_grammar_r3_20251227_192032/T3_0249__phi2_server_grammar__r1.json
T3_0249,AR,phi2_server_grammar,2,ok,1.8780,1.8733,-224,-28,0,outputs/logs/t3_phi2_server_grammar_r3_20251227_192032/T3_0249__phi2_server_grammar__r2.json
T3_0249,AR,phi2_server_grammar,3,ok,1.8777,1.8727,-224,-28,0,outputs/logs/t3_phi2_server_grammar_r3_20251227_192032/T3_0249__phi2_server_grammar__r3.json
T3_0137,AR,phi2_server_grammar,1,ok,1.4184,1.4005,169,169,1,outputs/logs/t3_phi2_server_grammar_r3_20251227_192032/T3_0137__phi2_server_grammar__r1.json
T3_0137,AR,phi2_server_grammar,2,ok,1.4165,1.4100,169,169,1,outputs/logs/t3_phi2_server_grammar_r3_20251227_192032/T3_0137__phi2_server_grammar__r2.json
T3_0137,AR,phi2_server_grammar,3,ok,1.4042,1.3980,169,169,1,outputs/logs/t3_phi2_server_grammar_r3_20251227_192032/T3_0137__phi2_server_grammar__r3.json
T3_0134,AR,phi2_server_grammar,1,ok,1.8935,1.8725,-100,-36,0,outputs/logs/t3_phi2_server_grammar_r3_20251227_192032/T3_0134__phi2_server_grammar__r1.json
T3_0134,AR,phi2_server_grammar,2,ok,1.8737,1.8686,-100,-36,0,outputs/logs/t3_phi2_server_grammar_r3_20251227_192032/T3_0134__phi2_server_grammar__r2.json
T3_0134,AR,phi2_server_grammar,3,ok,1.8705,1.8655,-100,-36,0,outputs/logs/t3_phi2_server_grammar_r3_20251227_192032/T3_0134__phi2_server_grammar__r3.json
T3_0221,AR,phi2_server_grammar,1,ok,1.4274,1.4091,95,95,1,outputs/logs/t3_phi2_server_grammar_r3_20251227_192032/T3_0221__phi2_server_grammar__r1.json
T3_0221,AR,phi2_server_grammar,2,ok,1.4143,1.4090,95,95,1,outputs/logs/t3_phi2_server_grammar_r3_20251227_192032/T3_0221__phi2_server_grammar__r2.json
T3_0221,AR,phi2_server_grammar,3,ok,1.4051,1.3998,95,95,1,outputs/logs/t3_phi2_server_grammar_r3_20251227_192032/T3_0221__phi2_server_grammar__r3.json
T3_0229,AR,phi2_server_grammar,1,ok,1.8882,1.8701,8645,8555,0,outputs/logs/t3_phi2_server_grammar_r3_20251227_192032/T3_0229__phi2_server_grammar__r1.json
T3_0229,AR,phi2_server_grammar,2,ok,1.8727,1.8678,8645,8555,0,outputs/logs/t3_phi2_server_grammar_r3_20251227_192032/T3_0229__phi2_server_grammar__r2.json
T3_0229,AR,phi2_server_grammar,3,ok,1.8731,1.8673,8645,8555,0,outputs/logs/t3_phi2_server_grammar_r3_20251227_192032/T3_0229__phi2_server_grammar__r3.json
T3_0137,AR,phi2_server_grammar,1,ok,1.4282,1.4057,169,169,1,outputs/logs/t3_phi2_server_grammar_r3_20251227_192032/T3_0137__phi2_server_grammar__r1.json
T3_0137,AR,phi2_server_grammar,2,ok,1.4056,1.4007,169,169,1,outputs/logs/t3_phi2_server_grammar_r3_20251227_192032/T3_0137__phi2_server_grammar__r2.json
T3_0137,AR,phi2_server_grammar,3,ok,1.4092,1.4044,169,169,1,outputs/logs/t3_phi2_server_grammar_r3_20251227_192032/T3_0137__phi2_server_grammar__r3.json
T3_0140,AR,phi2_server_grammar,1,ok,1.4229,1.4036,404,364,0,outputs/logs/t3_phi2_server_grammar_r3_20251227_192032/T3_0140__phi2_server_grammar__r1.json
T3_0140,AR,phi2_server_grammar,2,ok,1.4132,1.4081,404,364,0,outputs/logs/t3_phi2_server_grammar_r3_20251227_192032/T3_0140__phi2_server_grammar__r2.json
T3_0140,AR,phi2_server_grammar,3,ok,1.4079,1.4028,404,364,0,outputs/logs/t3_phi2_server_grammar_r3_20251227_192032/T3_0140__phi2_server_grammar__r3.json
T3_0232,AR,phi2_server_grammar,1,ok,5.3672,5.3474,912,882,0,outputs/logs/t3_phi2_server_grammar_r3_20251227_192032/T3_0232__phi2_server_grammar__r1.json
T3_0232,AR,phi2_server_grammar,2,ok,1.8777,1.8729,912,882,0,outputs/logs/t3_phi2_server_grammar_r3_20251227_192032/T3_0232__phi2_server_grammar__r2.json
T3_0232,AR,phi2_server_grammar,3,ok,1.8823,1.8772,912,882,0,outputs/logs/t3_phi2_server_grammar_r3_20251227_192032/T3_0232__phi2_server_grammar__r3.json
T3_0140,AR,phi2_server_grammar,1,ok,1.4431,1.4224,404,364,0,outputs/logs/t3_phi2_server_grammar_r3_20251227_192032/T3_0140__phi2_server_grammar__r1.json
T3_0140,AR,phi2_server_grammar,2,ok,1.4264,1.4217,404,364,0,outputs/logs/t3_phi2_server_grammar_r3_20251227_192032/T3_0140__phi2_server_grammar__r2.json
T3_0140,AR,phi2_server_grammar,3,ok,1.4337,1.4285,404,364,0,outputs/logs/t3_phi2_server_grammar_r3_20251227_192032/T3_0140__phi2_server_grammar__r3.json
T3_0241,AR,phi2_server_grammar,1,ok,1.8985,1.8761,32,-28,0,outputs/logs/t3_phi2_server_grammar_r3_20251227_192032/T3_0241__phi2_server_grammar__r1.json
T3_0241,AR,phi2_server_grammar,2,ok,1.8893,1.8847,32,-28,0,outputs/logs/t3_phi2_server_grammar_r3_20251227_192032/T3_0241__phi2_server_grammar__r2.json
T3_0241,AR,phi2_server_grammar,3,ok,1.8893,1.8849,32,-28,0,outputs/logs/t3_phi2_server_grammar_r3_20251227_192032/T3_0241__phi2_server_grammar__r3.json
T3_0209,AR,phi2_server_grammar,1,ok,1.8919,1.8745,474,456,0,outputs/logs/t3_phi2_server_grammar_r3_20251227_192032/T3_0209__phi2_server_grammar__r1.json
T3_0209,AR,phi2_server_grammar,2,ok,1.8691,1.8646,474,456,0,outputs/logs/t3_phi2_server_grammar_r3_20251227_192032/T3_0209__phi2_server_grammar__r2.json
T3_0209,AR,phi2_server_grammar,3,ok,1.8746,1.8699,474,456,0,outputs/logs/t3_phi2_server_grammar_r3_20251227_192032/T3_0209__phi2_server_grammar__r3.json
T3_0250,AR,phi2_server_grammar,1,ok,4.2404,4.2221,99,99,1,outputs/logs/t3_phi2_server_grammar_r3_20251227_192032/T3_0250__phi2_server_grammar__r1.json
T3_0250,AR,phi2_server_grammar,2,ok,1.4049,1.4002,99,99,1,outputs/logs/t3_phi2_server_grammar_r3_20251227_192032/T3_0250__phi2_server_grammar__r2.json
T3_0250,AR,phi2_server_grammar,3,ok,1.4137,1.4092,99,99,1,outputs/logs/t3_phi2_server_grammar_r3_20251227_192032/T3_0250__phi2_server_grammar__r3.json
T3_0144,AR,phi2_server_grammar,1,ok,1.8905,1.8727,499,441,0,outputs/logs/t3_phi2_server_grammar_r3_20251227_192032/T3_0144__phi2_server_grammar__r1.json
T3_0144,AR,phi2_server_grammar,2,ok,1.8748,1.8703,499,441,0,outputs/logs/t3_phi2_server_grammar_r3_20251227_192032/T3_0144__phi2_server_grammar__r2.json
T3_0144,AR,phi2_server_grammar,3,ok,1.8754,1.8709,499,441,0,outputs/logs/t3_phi2_server_grammar_r3_20251227_192032/T3_0144__phi2_server_grammar__r3.json
T3_0145,AR,phi2_server_grammar,1,ok,3.5888,3.5719,100,100,1,outputs/logs/t3_phi2_server_grammar_r3_20251227_192032/T3_0145__phi2_server_grammar__r1.json
T3_0145,AR,phi2_server_grammar,2,ok,1.4094,1.4048,100,100,1,outputs/logs/t3_phi2_server_grammar_r3_20251227_192032/T3_0145__phi2_server_grammar__r2.json
T3_0145,AR,phi2_server_grammar,3,ok,1.4124,1.4080,100,100,1,outputs/logs/t3_phi2_server_grammar_r3_20251227_192032/T3_0145__phi2_server_grammar__r3.json
T3_0146,AR,phi2_server_grammar,1,ok,1.4141,1.3984,980,980,1,outputs/logs/t3_phi2_server_grammar_r3_20251227_192032/T3_0146__phi2_server_grammar__r1.json
T3_0146,AR,phi2_server_grammar,2,ok,1.4151,1.4103,980,980,1,outputs/logs/t3_phi2_server_grammar_r3_20251227_192032/T3_0146__phi2_server_grammar__r2.json
T3_0146,AR,phi2_server_grammar,3,ok,1.4060,1.4013,980,980,1,outputs/logs/t3_phi2_server_grammar_r3_20251227_192032/T3_0146__phi2_server_grammar__r3.json
T3_0147,AR,phi2_server_grammar,1,ok,3.2914,3.2747,227,443,0,outputs/logs/t3_phi2_server_grammar_r3_20251227_192032/T3_0147__phi2_server_grammar__r1.json
T3_0147,AR,phi2_server_grammar,2,ok,3.2830,3.2785,227,443,0,outputs/logs/t3_phi2_server_grammar_r3_20251227_192032/T3_0147__phi2_server_grammar__r2.json
T3_0147,AR,phi2_server_grammar,3,ok,3.2809,3.2764,227,443,0,outputs/logs/t3_phi2_server_grammar_r3_20251227_192032/T3_0147__phi2_server_grammar__r3.json
T3_0235,AR,phi2_server_grammar,1,ok,1.4188,1.4008,136,136,1,outputs/logs/t3_phi2_server_grammar_r3_20251227_192032/T3_0235__phi2_server_grammar__r1.json
T3_0235,AR,phi2_server_grammar,2,ok,1.4046,1.4001,136,136,1,outputs/logs/t3_phi2_server_grammar_r3_20251227_192032/T3_0235__phi2_server_grammar__r2.json
T3_0235,AR,phi2_server_grammar,3,ok,1.4226,1.4182,136,136,1,outputs/logs/t3_phi2_server_grammar_r3_20251227_192032/T3_0235__phi2_server_grammar__r3.json
T3_0149,AR,phi2_server_grammar,1,ok,1.4246,1.4076,225,225,1,outputs/logs/t3_phi2_server_grammar_r3_20251227_192032/T3_0149__phi2_server_grammar__r1.json
T3_0149,AR,phi2_server_grammar,2,ok,1.4055,1.4010,225,225,1,outputs/logs/t3_phi2_server_grammar_r3_20251227_192032/T3_0149__phi2_server_grammar__r2.json
T3_0149,AR,phi2_server_grammar,3,ok,1.4111,1.4066,225,225,1,outputs/logs/t3_phi2_server_grammar_r3_20251227_192032/T3_0149__phi2_server_grammar__r3.json
T3_0208,AR,phi2_server_grammar,1,ok,5.3850,5.3681,931,589,0,outputs/logs/t3_phi2_server_grammar_r3_20251227_192032/T3_0208__phi2_server_grammar__r1.json
T3_0208,AR,phi2_server_grammar,2,ok,1.8749,1.8704,931,589,0,outputs/logs/t3_phi2_server_grammar_r3_20251227_192032/T3_0208__phi2_server_grammar__r2.json
T3_0208,AR,phi2_server_grammar,3,ok,1.8753,1.8708,931,589,0,outputs/logs/t3_phi2_server_grammar_r3_20251227_192032/T3_0208__phi2_server_grammar__r3.json
T3_0196,AR,phi2_server_grammar,1,ok,4.2333,4.2151,130,130,1,outputs/logs/t3_phi2_server_grammar_r3_20251227_192032/T3_0196__phi2_server_grammar__r1.json
T3_0196,AR,phi2_server_grammar,2,ok,1.4045,1.3999,130,130,1,outputs/logs/t3_phi2_server_grammar_r3_20251227_192032/T3_0196__phi2_server_grammar__r2.json
T3_0196,AR,phi2_server_grammar,3,ok,1.4052,1.4006,130,130,1,outputs/logs/t3_phi2_server_grammar_r3_20251227_192032/T3_0196__phi2_server_grammar__r3.json
T3_0190,AR,phi2_server_grammar,1,ok,1.8874,1.8701,301,539,0,outputs/logs/t3_phi2_server_grammar_r3_20251227_192032/T3_0190__phi2_server_grammar__r1.json
T3_0190,AR,phi2_server_grammar,2,ok,1.8733,1.8688,301,539,0,outputs/logs/t3_phi2_server_grammar_r3_20251227_192032/T3_0190__phi2_server_grammar__r2.json
T3_0190,AR,phi2_server_grammar,3,ok,1.8742,1.8698,301,539,0,outputs/logs/t3_phi2_server_grammar_r3_20251227_192032/T3_0190__phi2_server_grammar__r3.json
T3_0199,AR,phi2_server_grammar,1,ok,1.4265,1.4088,152,160,0,outputs/logs/t3_phi2_server_grammar_r3_20251227_192032/T3_0199__phi2_server_grammar__r1.json
T3_0199,AR,phi2_server_grammar,2,ok,1.4081,1.4034,152,160,0,outputs/logs/t3_phi2_server_grammar_r3_20251227_192032/T3_0199__phi2_server_grammar__r2.json
T3_0199,AR,phi2_server_grammar,3,ok,1.4111,1.4060,152,160,0,outputs/logs/t3_phi2_server_grammar_r3_20251227_192032/T3_0199__phi2_server_grammar__r3.json
T3_0169,AR,phi2_server_grammar,1,ok,1.8946,1.8764,412,438,0,outputs/logs/t3_phi2_server_grammar_r3_20251227_192032/T3_0169__phi2_server_grammar__r1.json
T3_0169,AR,phi2_server_grammar,2,ok,1.8704,1.8658,412,438,0,outputs/logs/t3_phi2_server_grammar_r3_20251227_192032/T3_0169__phi2_server_grammar__r2.json
T3_0169,AR,phi2_server_grammar,3,ok,1.8733,1.8688,412,438,0,outputs/logs/t3_phi2_server_grammar_r3_20251227_192032/T3_0169__phi2_server_grammar__r3.json
T3_0232,AR,phi2_server_grammar,1,ok,5.3921,5.3741,912,882,0,outputs/logs/t3_phi2_server_grammar_r3_20251227_192032/T3_0232__phi2_server_grammar__r1.json
T3_0232,AR,phi2_server_grammar,2,ok,1.8801,1.8756,912,882,0,outputs/logs/t3_phi2_server_grammar_r3_20251227_192032/T3_0232__phi2_server_grammar__r2.json
T3_0232,AR,phi2_server_grammar,3,ok,1.8700,1.8655,912,882,0,outputs/logs/t3_phi2_server_grammar_r3_20251227_192032/T3_0232__phi2_server_grammar__r3.json
T3_0204,AR,phi2_server_grammar,1,ok,1.4217,1.4031,280,560,0,outputs/logs/t3_phi2_server_grammar_r3_20251227_192032/T3_0204__phi2_server_grammar__r1.json
T3_0204,AR,phi2_server_grammar,2,ok,1.4045,1.4000,280,560,0,outputs/logs/t3_phi2_server_grammar_r3_20251227_192032/T3_0204__phi2_server_grammar__r2.json
T3_0204,AR,phi2_server_grammar,3,ok,1.4071,1.4027,280,560,0,outputs/logs/t3_phi2_server_grammar_r3_20251227_192032/T3_0204__phi2_server_grammar__r3.json
T3_0219,AR,phi2_server_grammar,1,ok,1.4193,1.4018,20,56,0,outputs/logs/t3_phi2_server_grammar_r3_20251227_192032/T3_0219__phi2_server_grammar__r1.json
T3_0219,AR,phi2_server_grammar,2,ok,1.4049,1.4003,20,56,0,outputs/logs/t3_phi2_server_grammar_r3_20251227_192032/T3_0219__phi2_server_grammar__r2.json
T3_0219,AR,phi2_server_grammar,3,ok,1.4055,1.4011,20,56,0,outputs/logs/t3_phi2_server_grammar_r3_20251227_192032/T3_0219__phi2_server_grammar__r3.json
T3_0158,AR,phi2_server_grammar,1,ok,4.2329,4.2158,98,108,0,outputs/logs/t3_phi2_server_grammar_r3_20251227_192032/T3_0158__phi2_server_grammar__r1.json
T3_0158,AR,phi2_server_grammar,2,ok,1.4046,1.3997,98,108,0,outputs/logs/t3_phi2_server_grammar_r3_20251227_192032/T3_0158__phi2_server_grammar__r2.json
T3_0158,AR,phi2_server_grammar,3,ok,1.4276,1.4225,98,108,0,outputs/logs/t3_phi2_server_grammar_r3_20251227_192032/T3_0158__phi2_server_grammar__r3.json
T3_0159,AR,phi2_server_grammar,1,ok,1.4329,1.4078,180,180,1,outputs/logs/t3_phi2_server_grammar_r3_20251227_192032/T3_0159__phi2_server_grammar__r1.json
T3_0159,AR,phi2_server_grammar,2,ok,1.4105,1.4049,180,180,1,outputs/logs/t3_phi2_server_grammar_r3_20251227_192032/T3_0159__phi2_server_grammar__r2.json
T3_0159,AR,phi2_server_grammar,3,ok,1.4110,1.4064,180,180,1,outputs/logs/t3_phi2_server_grammar_r3_20251227_192032/T3_0159__phi2_server_grammar__r3.json
T3_0204,AR,phi2_server_grammar,1,ok,1.4204,1.4030,280,560,0,outputs/logs/t3_phi2_server_grammar_r3_20251227_192032/T3_0204__phi2_server_grammar__r1.json
T3_0204,AR,phi2_server_grammar,2,ok,1.4077,1.4031,280,560,0,outputs/logs/t3_phi2_server_grammar_r3_20251227_192032/T3_0204__phi2_server_grammar__r2.json
T3_0204,AR,phi2_server_grammar,3,ok,1.4093,1.4046,280,560,0,outputs/logs/t3_phi2_server_grammar_r3_20251227_192032/T3_0204__phi2_server_grammar__r3.json
T3_0161,AR,phi2_server_grammar,1,ok,4.2326,4.2156,108,108,1,outputs/logs/t3_phi2_server_grammar_r3_20251227_192032/T3_0161__phi2_server_grammar__r1.json
T3_0161,AR,phi2_server_grammar,2,ok,1.4034,1.3987,108,108,1,outputs/logs/t3_phi2_server_grammar_r3_20251227_192032/T3_0161__phi2_server_grammar__r2.json
T3_0161,AR,phi2_server_grammar,3,ok,1.4090,1.4043,108,108,1,outputs/logs/t3_phi2_server_grammar_r3_20251227_192032/T3_0161__phi2_server_grammar__r3.json
T3_0230,AR,phi2_server_grammar,1,ok,1.4194,1.4020,233,167,0,outputs/logs/t3_phi2_server_grammar_r3_20251227_192032/T3_0230__phi2_server_grammar__r1.json
T3_0230,AR,phi2_server_grammar,2,ok,1.4049,1.4005,233,167,0,outputs/logs/t3_phi2_server_grammar_r3_20251227_192032/T3_0230__phi2_server_grammar__r2.json
T3_0230,AR,phi2_server_grammar,3,ok,1.4072,1.4028,233,167,0,outputs/logs/t3_phi2_server_grammar_r3_20251227_192032/T3_0230__phi2_server_grammar__r3.json
T3_0163,AR,phi2_server_grammar,1,ok,1.4161,1.3995,19,19,1,outputs/logs/t3_phi2_server_grammar_r3_20251227_192032/T3_0163__phi2_server_grammar__r1.json
T3_0163,AR,phi2_server_grammar,2,ok,1.4036,1.3991,19,19,1,outputs/logs/t3_phi2_server_grammar_r3_20251227_192032/T3_0163__phi2_server_grammar__r2.json
T3_0163,AR,phi2_server_grammar,3,ok,1.4023,1.3978,19,19,1,outputs/logs/t3_phi2_server_grammar_r3_20251227_192032/T3_0163__phi2_server_grammar__r3.json
T3_0227,AR,phi2_server_grammar,1,ok,1.8878,1.8711,810,846,0,outputs/logs/t3_phi2_server_grammar_r3_20251227_192032/T3_0227__phi2_server_grammar__r1.json
T3_0227,AR,phi2_server_grammar,2,ok,1.8736,1.8686,810,846,0,outputs/logs/t3_phi2_server_grammar_r3_20251227_192032/T3_0227__phi2_server_grammar__r2.json
T3_0227,AR,phi2_server_grammar,3,ok,1.8718,1.8665,810,846,0,outputs/logs/t3_phi2_server_grammar_r3_20251227_192032/T3_0227__phi2_server_grammar__r3.json
T3_0165,AR,phi2_server_grammar,1,ok,1.4139,1.3970,266,266,1,outputs/logs/t3_phi2_server_grammar_r3_20251227_192032/T3_0165__phi2_server_grammar__r1.json
T3_0165,AR,phi2_server_grammar,2,ok,1.4056,1.4012,266,266,1,outputs/logs/t3_phi2_server_grammar_r3_20251227_192032/T3_0165__phi2_server_grammar__r2.json
T3_0165,AR,phi2_server_grammar,3,ok,1.4035,1.3991,266,266,1,outputs/logs/t3_phi2_server_grammar_r3_20251227_192032/T3_0165__phi2_server_grammar__r3.json
T3_0169,AR,phi2_server_grammar,1,ok,1.8819,1.8654,412,438,0,outputs/logs/t3_phi2_server_grammar_r3_20251227_192032/T3_0169__phi2_server_grammar__r1.json
T3_0169,AR,phi2_server_grammar,2,ok,1.8779,1.8731,412,438,0,outputs/logs/t3_phi2_server_grammar_r3_20251227_192032/T3_0169__phi2_server_grammar__r2.json
T3_0169,AR,phi2_server_grammar,3,ok,1.8721,1.8671,412,438,0,outputs/logs/t3_phi2_server_grammar_r3_20251227_192032/T3_0169__phi2_server_grammar__r3.json
T3_0183,AR,phi2_server_grammar,1,ok,1.4259,1.4086,24,24,1,outputs/logs/t3_phi2_server_grammar_r3_20251227_192032/T3_0183__phi2_server_grammar__r1.json
T3_0183,AR,phi2_server_grammar,2,ok,1.4036,1.3991,24,24,1,outputs/logs/t3_phi2_server_grammar_r3_20251227_192032/T3_0183__phi2_server_grammar__r2.json
T3_0183,AR,phi2_server_grammar,3,ok,1.4062,1.4018,24,24,1,outputs/logs/t3_phi2_server_grammar_r3_20251227_192032/T3_0183__phi2_server_grammar__r3.json
T3_0208,AR,phi2_server_grammar,1,ok,1.8896,1.8727,931,589,0,outputs/logs/t3_phi2_server_grammar_r3_20251227_192032/T3_0208__phi2_server_grammar__r1.json
T3_0208,AR,phi2_server_grammar,2,ok,1.8756,1.8711,931,589,0,outputs/logs/t3_phi2_server_grammar_r3_20251227_192032/T3_0208__phi2_server_grammar__r2.json
T3_0208,AR,phi2_server_grammar,3,ok,1.8742,1.8695,931,589,0,outputs/logs/t3_phi2_server_grammar_r3_20251227_192032/T3_0208__phi2_server_grammar__r3.json
T3_0169,AR,phi2_server_grammar,1,ok,1.8893,1.8696,412,438,0,outputs/logs/t3_phi2_server_grammar_r3_20251227_192032/T3_0169__phi2_server_grammar__r1.json
T3_0169,AR,phi2_server_grammar,2,ok,1.8798,1.8749,412,438,0,outputs/logs/t3_phi2_server_grammar_r3_20251227_192032/T3_0169__phi2_server_grammar__r2.json
T3_0169,AR,phi2_server_grammar,3,ok,1.8794,1.8747,412,438,0,outputs/logs/t3_phi2_server_grammar_r3_20251227_192032/T3_0169__phi2_server_grammar__r3.json
T3_0221,AR,phi2_server_grammar,1,ok,1.4208,1.4029,95,95,1,outputs/logs/t3_phi2_server_grammar_r3_20251227_192032/T3_0221__phi2_server_grammar__r1.json
T3_0221,AR,phi2_server_grammar,2,ok,1.4206,1.4160,95,95,1,outputs/logs/t3_phi2_server_grammar_r3_20251227_192032/T3_0221__phi2_server_grammar__r2.json
T3_0221,AR,phi2_server_grammar,3,ok,1.4053,1.4005,95,95,1,outputs/logs/t3_phi2_server_grammar_r3_20251227_192032/T3_0221__phi2_server_grammar__r3.json
T3_0235,AR,phi2_server_grammar,1,ok,1.4235,1.4053,136,136,1,outputs/logs/t3_phi2_server_grammar_r3_20251227_192032/T3_0235__phi2_server_grammar__r1.json
T3_0235,AR,phi2_server_grammar,2,ok,1.4115,1.4069,136,136,1,outputs/logs/t3_phi2_server_grammar_r3_20251227_192032/T3_0235__phi2_server_grammar__r2.json
T3_0235,AR,phi2_server_grammar,3,ok,1.4134,1.4080,136,136,1,outputs/logs/t3_phi2_server_grammar_r3_20251227_192032/T3_0235__phi2_server_grammar__r3.json
T3_0172,AR,phi2_server_grammar,1,ok,1.9014,1.8836,1264,992,0,outputs/logs/t3_phi2_server_grammar_r3_20251227_192032/T3_0172__phi2_server_grammar__r1.json
T3_0172,AR,phi2_server_grammar,2,ok,1.8737,1.8690,1264,992,0,outputs/logs/t3_phi2_server_grammar_r3_20251227_192032/T3_0172__phi2_server_grammar__r2.json
T3_0172,AR,phi2_server_grammar,3,ok,1.8707,1.8659,1264,992,0,outputs/logs/t3_phi2_server_grammar_r3_20251227_192032/T3_0172__phi2_server_grammar__r3.json
T3_0222,AR,phi2_server_grammar,1,ok,1.8914,1.8727,108,756,0,outputs/logs/t3_phi2_server_grammar_r3_20251227_192032/T3_0222__phi2_server_grammar__r1.json
T3_0222,AR,phi2_server_grammar,2,ok,1.8979,1.8932,108,756,0,outputs/logs/t3_phi2_server_grammar_r3_20251227_192032/T3_0222__phi2_server_grammar__r2.json
T3_0222,AR,phi2_server_grammar,3,ok,1.8744,1.8697,108,756,0,outputs/logs/t3_phi2_server_grammar_r3_20251227_192032/T3_0222__phi2_server_grammar__r3.json
T3_0174,AR,phi2_server_grammar,1,ok,1.4238,1.4068,10,10,1,outputs/logs/t3_phi2_server_grammar_r3_20251227_192032/T3_0174__phi2_server_grammar__r1.json
T3_0174,AR,phi2_server_grammar,2,ok,1.4079,1.4032,10,10,1,outputs/logs/t3_phi2_server_grammar_r3_20251227_192032/T3_0174__phi2_server_grammar__r2.json
T3_0174,AR,phi2_server_grammar,3,ok,1.4031,1.3985,10,10,1,outputs/logs/t3_phi2_server_grammar_r3_20251227_192032/T3_0174__phi2_server_grammar__r3.json
T3_0175,AR,phi2_server_grammar,1,ok,1.8842,1.8684,5040,5040,1,outputs/logs/t3_phi2_server_grammar_r3_20251227_192032/T3_0175__phi2_server_grammar__r1.json
T3_0175,AR,phi2_server_grammar,2,ok,1.8716,1.8669,5040,5040,1,outputs/logs/t3_phi2_server_grammar_r3_20251227_192032/T3_0175__phi2_server_grammar__r2.json
T3_0175,AR,phi2_server_grammar,3,ok,1.8752,1.8705,5040,5040,1,outputs/logs/t3_phi2_server_grammar_r3_20251227_192032/T3_0175__phi2_server_grammar__r3.json
T3_0208,AR,phi2_server_grammar,1,ok,1.8863,1.8688,931,589,0,outputs/logs/t3_phi2_server_grammar_r3_20251227_192032/T3_0208__phi2_server_grammar__r1.json
T3_0208,AR,phi2_server_grammar,2,ok,1.8817,1.8770,931,589,0,outputs/logs/t3_phi2_server_grammar_r3_20251227_192032/T3_0208__phi2_server_grammar__r2.json
T3_0208,AR,phi2_server_grammar,3,ok,1.8678,1.8632,931,589,0,outputs/logs/t3_phi2_server_grammar_r3_20251227_192032/T3_0208__phi2_server_grammar__r3.json
T3_0177,AR,phi2_server_grammar,1,ok,1.8867,1.8679,649,657,0,outputs/logs/t3_phi2_server_grammar_r3_20251227_192032/T3_0177__phi2_server_grammar__r1.json
T3_0177,AR,phi2_server_grammar,2,ok,1.8758,1.8710,649,657,0,outputs/logs/t3_phi2_server_grammar_r3_20251227_192032/T3_0177__phi2_server_grammar__r2.json
T3_0177,AR,phi2_server_grammar,3,ok,1.8711,1.8665,649,657,0,outputs/logs/t3_phi2_server_grammar_r3_20251227_192032/T3_0177__phi2_server_grammar__r3.json
T3_0178,AR,phi2_server_grammar,1,ok,1.8865,1.8694,14641,14641,1,outputs/logs/t3_phi2_server_grammar_r3_20251227_192032/T3_0178__phi2_server_grammar__r1.json
T3_0178,AR,phi2_server_grammar,2,ok,1.8705,1.8661,14641,14641,1,outputs/logs/t3_phi2_server_grammar_r3_20251227_192032/T3_0178__phi2_server_grammar__r2.json
T3_0178,AR,phi2_server_grammar,3,ok,1.8751,1.8707,14641,14641,1,outputs/logs/t3_phi2_server_grammar_r3_20251227_192032/T3_0178__phi2_server_grammar__r3.json
T3_0199,AR,phi2_server_grammar,1,ok,1.4170,1.4005,152,160,0,outputs/logs/t3_phi2_server_grammar_r3_20251227_192032/T3_0199__phi2_server_grammar__r1.json
T3_0199,AR,phi2_server_grammar,2,ok,1.4075,1.4029,152,160,0,outputs/logs/t3_phi2_server_grammar_r3_20251227_192032/T3_0199__phi2_server_grammar__r2.json
T3_0199,AR,phi2_server_grammar,3,ok,1.4062,1.4016,152,160,0,outputs/logs/t3_phi2_server_grammar_r3_20251227_192032/T3_0199__phi2_server_grammar__r3.json
T3_0180,AR,phi2_server_grammar,1,ok,4.2439,4.2257,55,55,1,outputs/logs/t3_phi2_server_grammar_r3_20251227_192032/T3_0180__phi2_server_grammar__r1.json
T3_0180,AR,phi2_server_grammar,2,ok,1.4119,1.4073,55,55,1,outputs/logs/t3_phi2_server_grammar_r3_20251227_192032/T3_0180__phi2_server_grammar__r2.json
T3_0180,AR,phi2_server_grammar,3,ok,1.4055,1.4000,55,55,1,outputs/logs/t3_phi2_server_grammar_r3_20251227_192032/T3_0180__phi2_server_grammar__r3.json
T3_0203,AR,phi2_server_grammar,1,ok,1.4157,1.3987,408,408,1,outputs/logs/t3_phi2_server_grammar_r3_20251227_192032/T3_0203__phi2_server_grammar__r1.json
T3_0203,AR,phi2_server_grammar,2,ok,1.4035,1.3988,408,408,1,outputs/logs/t3_phi2_server_grammar_r3_20251227_192032/T3_0203__phi2_server_grammar__r2.json
T3_0203,AR,phi2_server_grammar,3,ok,1.4012,1.3966,408,408,1,outputs/logs/t3_phi2_server_grammar_r3_20251227_192032/T3_0203__phi2_server_grammar__r3.json
T3_0183,AR,phi2_server_grammar,1,ok,1.4399,1.4241,24,24,1,outputs/logs/t3_phi2_server_grammar_r3_20251227_192032/T3_0183__phi2_server_grammar__r1.json
T3_0183,AR,phi2_server_grammar,2,ok,1.4043,1.3995,24,24,1,outputs/logs/t3_phi2_server_grammar_r3_20251227_192032/T3_0183__phi2_server_grammar__r2.json
T3_0183,AR,phi2_server_grammar,3,ok,1.4003,1.3955,24,24,1,outputs/logs/t3_phi2_server_grammar_r3_20251227_192032/T3_0183__phi2_server_grammar__r3.json
T3_0183,AR,phi2_server_grammar,1,ok,1.4047,1.3997,24,24,1,outputs/logs/t3_phi2_server_grammar_r3_20251227_192032/T3_0183__phi2_server_grammar__r1.json
T3_0183,AR,phi2_server_grammar,2,ok,1.4045,1.3996,24,24,1,outputs/logs/t3_phi2_server_grammar_r3_20251227_192032/T3_0183__phi2_server_grammar__r2.json
T3_0183,AR,phi2_server_grammar,3,ok,1.4034,1.3985,24,24,1,outputs/logs/t3_phi2_server_grammar_r3_20251227_192032/T3_0183__phi2_server_grammar__r3.json
T3_0229,AR,phi2_server_grammar,1,ok,1.9274,1.9107,8645,8555,0,outputs/logs/t3_phi2_server_grammar_r3_20251227_192032/T3_0229__phi2_server_grammar__r1.json
T3_0229,AR,phi2_server_grammar,2,ok,1.9115,1.9067,8645,8555,0,outputs/logs/t3_phi2_server_grammar_r3_20251227_192032/T3_0229__phi2_server_grammar__r2.json
T3_0229,AR,phi2_server_grammar,3,ok,1.8891,1.8840,8645,8555,0,outputs/logs/t3_phi2_server_grammar_r3_20251227_192032/T3_0229__phi2_server_grammar__r3.json
T3_0193,AR,phi2_server_grammar,1,ok,5.3674,5.3487,1064,656,0,outputs/logs/t3_phi2_server_grammar_r3_20251227_192032/T3_0193__phi2_server_grammar__r1.json
T3_0193,AR,phi2_server_grammar,2,ok,1.8749,1.8704,1064,656,0,outputs/logs/t3_phi2_server_grammar_r3_20251227_192032/T3_0193__phi2_server_grammar__r2.json
T3_0193,AR,phi2_server_grammar,3,ok,1.8762,1.8715,1064,656,0,outputs/logs/t3_phi2_server_grammar_r3_20251227_192032/T3_0193__phi2_server_grammar__r3.json
T3_0220,AR,phi2_server_grammar,1,ok,1.8970,1.8770,866,933,0,outputs/logs/t3_phi2_server_grammar_r3_20251227_192032/T3_0220__phi2_server_grammar__r1.json
T3_0220,AR,phi2_server_grammar,2,ok,1.8728,1.8682,866,933,0,outputs/logs/t3_phi2_server_grammar_r3_20251227_192032/T3_0220__phi2_server_grammar__r2.json
T3_0220,AR,phi2_server_grammar,3,ok,1.8755,1.8710,866,933,0,outputs/logs/t3_phi2_server_grammar_r3_20251227_192032/T3_0220__phi2_server_grammar__r3.json
T3_0187,AR,phi2_server_grammar,1,ok,1.4240,1.4070,10,10,1,outputs/logs/t3_phi2_server_grammar_r3_20251227_192032/T3_0187__phi2_server_grammar__r1.json
T3_0187,AR,phi2_server_grammar,2,ok,1.4039,1.3992,10,10,1,outputs/logs/t3_phi2_server_grammar_r3_20251227_192032/T3_0187__phi2_server_grammar__r2.json
T3_0187,AR,phi2_server_grammar,3,ok,1.4095,1.4048,10,10,1,outputs/logs/t3_phi2_server_grammar_r3_20251227_192032/T3_0187__phi2_server_grammar__r3.json
T3_0193,AR,phi2_server_grammar,1,ok,1.8927,1.8755,1064,656,0,outputs/logs/t3_phi2_server_grammar_r3_20251227_192032/T3_0193__phi2_server_grammar__r1.json
T3_0193,AR,phi2_server_grammar,2,ok,1.8804,1.8754,1064,656,0,outputs/logs/t3_phi2_server_grammar_r3_20251227_192032/T3_0193__phi2_server_grammar__r2.json
T3_0193,AR,phi2_server_grammar,3,ok,1.8792,1.8742,1064,656,0,outputs/logs/t3_phi2_server_grammar_r3_20251227_192032/T3_0193__phi2_server_grammar__r3.json
T3_0189,AR,phi2_server_grammar,1,ok,1.8844,1.8659,4524,4446,0,outputs/logs/t3_phi2_server_grammar_r3_20251227_192032/T3_0189__phi2_server_grammar__r1.json
T3_0189,AR,phi2_server_grammar,2,ok,1.8766,1.8721,4524,4446,0,outputs/logs/t3_phi2_server_grammar_r3_20251227_192032/T3_0189__phi2_server_grammar__r2.json
T3_0189,AR,phi2_server_grammar,3,ok,1.8730,1.8680,4524,4446,0,outputs/logs/t3_phi2_server_grammar_r3_20251227_192032/T3_0189__phi2_server_grammar__r3.json
T3_0190,AR,phi2_server_grammar,1,ok,1.8905,1.8726,301,539,0,outputs/logs/t3_phi2_server_grammar_r3_20251227_192032/T3_0190__phi2_server_grammar__r1.json
T3_0190,AR,phi2_server_grammar,2,ok,1.8733,1.8686,301,539,0,outputs/logs/t3_phi2_server_grammar_r3_20251227_192032/T3_0190__phi2_server_grammar__r2.json
T3_0190,AR,phi2_server_grammar,3,ok,1.8755,1.8706,301,539,0,outputs/logs/t3_phi2_server_grammar_r3_20251227_192032/T3_0190__phi2_server_grammar__r3.json
T3_0191,AR,phi2_server_grammar,1,ok,1.4201,1.4023,31,31,1,outputs/logs/t3_phi2_server_grammar_r3_20251227_192032/T3_0191__phi2_server_grammar__r1.json
T3_0191,AR,phi2_server_grammar,2,ok,1.4053,1.4005,31,31,1,outputs/logs/t3_phi2_server_grammar_r3_20251227_192032/T3_0191__phi2_server_grammar__r2.json
T3_0191,AR,phi2_server_grammar,3,ok,1.4139,1.4092,31,31,1,outputs/logs/t3_phi2_server_grammar_r3_20251227_192032/T3_0191__phi2_server_grammar__r3.json
T3_0192,AR,phi2_server_grammar,1,ok,1.4203,1.4033,324,4,0,outputs/logs/t3_phi2_server_grammar_r3_20251227_192032/T3_0192__phi2_server_grammar__r1.json
T3_0192,AR,phi2_server_grammar,2,ok,1.4047,1.3999,324,4,0,outputs/logs/t3_phi2_server_grammar_r3_20251227_192032/T3_0192__phi2_server_grammar__r2.json
T3_0192,AR,phi2_server_grammar,3,ok,1.4099,1.4051,324,4,0,outputs/logs/t3_phi2_server_grammar_r3_20251227_192032/T3_0192__phi2_server_grammar__r3.json
T3_0193,AR,phi2_server_grammar,1,ok,1.8948,1.8761,1064,656,0,outputs/logs/t3_phi2_server_grammar_r3_20251227_192032/T3_0193__phi2_server_grammar__r1.json
T3_0193,AR,phi2_server_grammar,2,ok,1.8739,1.8690,1064,656,0,outputs/logs/t3_phi2_server_grammar_r3_20251227_192032/T3_0193__phi2_server_grammar__r2.json
T3_0193,AR,phi2_server_grammar,3,ok,1.8739,1.8691,1064,656,0,outputs/logs/t3_phi2_server_grammar_r3_20251227_192032/T3_0193__phi2_server_grammar__r3.json
T3_0231,AR,phi2_server_grammar,1,ok,1.8859,1.8668,648,572,0,outputs/logs/t3_phi2_server_grammar_r3_20251227_192032/T3_0231__phi2_server_grammar__r1.json
T3_0231,AR,phi2_server_grammar,2,ok,1.8788,1.8739,648,572,0,outputs/logs/t3_phi2_server_grammar_r3_20251227_192032/T3_0231__phi2_server_grammar__r2.json
T3_0231,AR,phi2_server_grammar,3,ok,1.8764,1.8717,648,572,0,outputs/logs/t3_phi2_server_grammar_r3_20251227_192032/T3_0231__phi2_server_grammar__r3.json
T3_0238,AR,phi2_server_grammar,1,ok,1.8872,1.8697,14641,14641,1,outputs/logs/t3_phi2_server_grammar_r3_20251227_192032/T3_0238__phi2_server_grammar__r1.json
T3_0238,AR,phi2_server_grammar,2,ok,1.8783,1.8735,14641,14641,1,outputs/logs/t3_phi2_server_grammar_r3_20251227_192032/T3_0238__phi2_server_grammar__r2.json
T3_0238,AR,phi2_server_grammar,3,ok,1.8709,1.8660,14641,14641,1,outputs/logs/t3_phi2_server_grammar_r3_20251227_192032/T3_0238__phi2_server_grammar__r3.json
T3_0196,AR,phi2_server_grammar,1,ok,1.4178,1.4009,130,130,1,outputs/logs/t3_phi2_server_grammar_r3_20251227_192032/T3_0196__phi2_server_grammar__r1.json
T3_0196,AR,phi2_server_grammar,2,ok,1.4106,1.4054,130,130,1,outputs/logs/t3_phi2_server_grammar_r3_20251227_192032/T3_0196__phi2_server_grammar__r2.json
T3_0196,AR,phi2_server_grammar,3,ok,1.4052,1.3998,130,130,1,outputs/logs/t3_phi2_server_grammar_r3_20251227_192032/T3_0196__phi2_server_grammar__r3.json
T3_0244,AR,phi2_server_grammar,1,ok,1.8896,1.8699,657,567,0,outputs/logs/t3_phi2_server_grammar_r3_20251227_192032/T3_0244__phi2_server_grammar__r1.json
T3_0244,AR,phi2_server_grammar,2,ok,1.8706,1.8660,657,567,0,outputs/logs/t3_phi2_server_grammar_r3_20251227_192032/T3_0244__phi2_server_grammar__r2.json
T3_0244,AR,phi2_server_grammar,3,ok,1.8722,1.8674,657,567,0,outputs/logs/t3_phi2_server_grammar_r3_20251227_192032/T3_0244__phi2_server_grammar__r3.json
T3_0220,AR,phi2_server_grammar,1,ok,1.8958,1.8778,866,933,0,outputs/logs/t3_phi2_server_grammar_r3_20251227_192032/T3_0220__phi2_server_grammar__r1.json
T3_0220,AR,phi2_server_grammar,2,ok,1.8704,1.8655,866,933,0,outputs/logs/t3_phi2_server_grammar_r3_20251227_192032/T3_0220__phi2_server_grammar__r2.json
T3_0220,AR,phi2_server_grammar,3,ok,1.8748,1.8699,866,933,0,outputs/logs/t3_phi2_server_grammar_r3_20251227_192032/T3_0220__phi2_server_grammar__r3.json
T3_0199,AR,phi2_server_grammar,1,ok,1.4194,1.4011,152,160,0,outputs/logs/t3_phi2_server_grammar_r3_20251227_192032/T3_0199__phi2_server_grammar__r1.json
T3_0199,AR,phi2_server_grammar,2,ok,1.4049,1.4000,152,160,0,outputs/logs/t3_phi2_server_grammar_r3_20251227_192032/T3_0199__phi2_server_grammar__r2.json
T3_0199,AR,phi2_server_grammar,3,ok,1.4181,1.4134,152,160,0,outputs/logs/t3_phi2_server_grammar_r3_20251227_192032/T3_0199__phi2_server_grammar__r3.json
T3_0234,AR,phi2_server_grammar,1,ok,4.2317,4.2146,146,146,1,outputs/logs/t3_phi2_server_grammar_r3_20251227_192032/T3_0234__phi2_server_grammar__r1.json
T3_0234,AR,phi2_server_grammar,2,ok,1.4096,1.4048,146,146,1,outputs/logs/t3_phi2_server_grammar_r3_20251227_192032/T3_0234__phi2_server_grammar__r2.json
T3_0234,AR,phi2_server_grammar,3,ok,1.4137,1.4089,146,146,1,outputs/logs/t3_phi2_server_grammar_r3_20251227_192032/T3_0234__phi2_server_grammar__r3.json
T3_0201,AR,phi2_server_grammar,1,ok,4.2210,4.2088,44,44,1,outputs/logs/t3_phi2_server_grammar_r3_20251227_192032/T3_0201__phi2_server_grammar__r1.json
T3_0201,AR,phi2_server_grammar,2,ok,1.4062,1.4013,44,44,1,outputs/logs/t3_phi2_server_grammar_r3_20251227_192032/T3_0201__phi2_server_grammar__r2.json
T3_0201,AR,phi2_server_grammar,3,ok,1.4050,1.4001,44,44,1,outputs/logs/t3_phi2_server_grammar_r3_20251227_192032/T3_0201__phi2_server_grammar__r3.json
T3_0230,AR,phi2_server_grammar,1,ok,1.4266,1.4034,233,167,0,outputs/logs/t3_phi2_server_grammar_r3_20251227_192032/T3_0230__phi2_server_grammar__r1.json
T3_0230,AR,phi2_server_grammar,2,ok,1.4106,1.4053,233,167,0,outputs/logs/t3_phi2_server_grammar_r3_20251227_192032/T3_0230__phi2_server_grammar__r2.json
T3_0230,AR,phi2_server_grammar,3,ok,1.4069,1.4017,233,167,0,outputs/logs/t3_phi2_server_grammar_r3_20251227_192032/T3_0230__phi2_server_grammar__r3.json
T3_0203,AR,phi2_server_grammar,1,ok,1.4195,1.4029,408,408,1,outputs/logs/t3_phi2_server_grammar_r3_20251227_192032/T3_0203__phi2_server_grammar__r1.json
T3_0203,AR,phi2_server_grammar,2,ok,1.4063,1.4014,408,408,1,outputs/logs/t3_phi2_server_grammar_r3_20251227_192032/T3_0203__phi2_server_grammar__r2.json
T3_0203,AR,phi2_server_grammar,3,ok,1.4000,1.3953,408,408,1,outputs/logs/t3_phi2_server_grammar_r3_20251227_192032/T3_0203__phi2_server_grammar__r3.json
T3_0204,AR,phi2_server_grammar,1,ok,1.4214,1.4044,280,560,0,outputs/logs/t3_phi2_server_grammar_r3_20251227_192032/T3_0204__phi2_server_grammar__r1.json
T3_0204,AR,phi2_server_grammar,2,ok,1.4156,1.4105,280,560,0,outputs/logs/t3_phi2_server_grammar_r3_20251227_192032/T3_0204__phi2_server_grammar__r2.json
T3_0204,AR,phi2_server_grammar,3,ok,1.4076,1.4016,280,560,0,outputs/logs/t3_phi2_server_grammar_r3_20251227_192032/T3_0204__phi2_server_grammar__r3.json
T3_0205,AR,phi2_server_grammar,1,ok,1.4324,1.4103,281,287,0,outputs/logs/t3_phi2_server_grammar_r3_20251227_192032/T3_0205__phi2_server_grammar__r1.json
T3_0205,AR,phi2_server_grammar,2,ok,1.4056,1.4008,281,287,0,outputs/logs/t3_phi2_server_grammar_r3_20251227_192032/T3_0205__phi2_server_grammar__r2.json
T3_0205,AR,phi2_server_grammar,3,ok,1.4157,1.4108,281,287,0,outputs/logs/t3_phi2_server_grammar_r3_20251227_192032/T3_0205__phi2_server_grammar__r3.json
T3_0218,AR,phi2_server_grammar,1,ok,1.4398,1.4234,17,17,1,outputs/logs/t3_phi2_server_grammar_r3_20251227_192032/T3_0218__phi2_server_grammar__r1.json
T3_0218,AR,phi2_server_grammar,2,ok,1.4253,1.4205,17,17,1,outputs/logs/t3_phi2_server_grammar_r3_20251227_192032/T3_0218__phi2_server_grammar__r2.json
T3_0218,AR,phi2_server_grammar,3,ok,1.4253,1.4208,17,17,1,outputs/logs/t3_phi2_server_grammar_r3_20251227_192032/T3_0218__phi2_server_grammar__r3.json
T3_0207,AR,phi2_server_grammar,1,ok,1.8851,1.8689,784,784,1,outputs/logs/t3_phi2_server_grammar_r3_20251227_192032/T3_0207__phi2_server_grammar__r1.json
T3_0207,AR,phi2_server_grammar,2,ok,1.8714,1.8669,784,784,1,outputs/logs/t3_phi2_server_grammar_r3_20251227_192032/T3_0207__phi2_server_grammar__r2.json
T3_0207,AR,phi2_server_grammar,3,ok,1.8732,1.8685,784,784,1,outputs/logs/t3_phi2_server_grammar_r3_20251227_192032/T3_0207__phi2_server_grammar__r3.json
T3_0208,AR,phi2_server_grammar,1,ok,5.3942,5.3768,931,589,0,outputs/logs/t3_phi2_server_grammar_r3_20251227_192032/T3_0208__phi2_server_grammar__r1.json
T3_0208,AR,phi2_server_grammar,2,ok,1.8751,1.8704,931,589,0,outputs/logs/t3_phi2_server_grammar_r3_20251227_192032/T3_0208__phi2_server_grammar__r2.json
T3_0208,AR,phi2_server_grammar,3,ok,1.8766,1.8720,931,589,0,outputs/logs/t3_phi2_server_grammar_r3_20251227_192032/T3_0208__phi2_server_grammar__r3.json
T3_0209,AR,phi2_server_grammar,1,ok,1.8916,1.8732,474,456,0,outputs/logs/t3_phi2_server_grammar_r3_20251227_192032/T3_0209__phi2_server_grammar__r1.json
T3_0209,AR,phi2_server_grammar,2,ok,1.8715,1.8669,474,456,0,outputs/logs/t3_phi2_server_grammar_r3_20251227_192032/T3_0209__phi2_server_grammar__r2.json
T3_0209,AR,phi2_server_grammar,3,ok,1.8846,1.8799,474,456,0,outputs/logs/t3_phi2_server_grammar_r3_20251227_192032/T3_0209__phi2_server_grammar__r3.json
T3_0240,AR,phi2_server_grammar,1,ok,4.2327,4.2151,41,41,1,outputs/logs/t3_phi2_server_grammar_r3_20251227_192032/T3_0240__phi2_server_grammar__r1.json
T3_0240,AR,phi2_server_grammar,2,ok,1.4099,1.4052,41,41,1,outputs/logs/t3_phi2_server_grammar_r3_20251227_192032/T3_0240__phi2_server_grammar__r2.json
T3_0240,AR,phi2_server_grammar,3,ok,1.4124,1.4079,41,41,1,outputs/logs/t3_phi2_server_grammar_r3_20251227_192032/T3_0240__phi2_server_grammar__r3.json
T3_0213,AR,phi2_server_grammar,1,ok,1.8938,1.8766,1113,665,0,outputs/logs/t3_phi2_server_grammar_r3_20251227_192032/T3_0213__phi2_server_grammar__r1.json
T3_0213,AR,phi2_server_grammar,2,ok,1.8780,1.8734,1113,665,0,outputs/logs/t3_phi2_server_grammar_r3_20251227_192032/T3_0213__phi2_server_grammar__r2.json
T3_0213,AR,phi2_server_grammar,3,ok,1.8792,1.8745,1113,665,0,outputs/logs/t3_phi2_server_grammar_r3_20251227_192032/T3_0213__phi2_server_grammar__r3.json
T3_0212,AR,phi2_server_grammar,1,ok,1.8878,1.8706,729,729,1,outputs/logs/t3_phi2_server_grammar_r3_20251227_192032/T3_0212__phi2_server_grammar__r1.json
T3_0212,AR,phi2_server_grammar,2,ok,1.8759,1.8713,729,729,1,outputs/logs/t3_phi2_server_grammar_r3_20251227_192032/T3_0212__phi2_server_grammar__r2.json
T3_0212,AR,phi2_server_grammar,3,ok,1.8720,1.8674,729,729,1,outputs/logs/t3_phi2_server_grammar_r3_20251227_192032/T3_0212__phi2_server_grammar__r3.json
T3_0213,AR,phi2_server_grammar,1,ok,1.8936,1.8768,1113,665,0,outputs/logs/t3_phi2_server_grammar_r3_20251227_192032/T3_0213__phi2_server_grammar__r1.json
T3_0213,AR,phi2_server_grammar,2,ok,1.8734,1.8688,1113,665,0,outputs/logs/t3_phi2_server_grammar_r3_20251227_192032/T3_0213__phi2_server_grammar__r2.json
T3_0213,AR,phi2_server_grammar,3,ok,1.8766,1.8718,1113,665,0,outputs/logs/t3_phi2_server_grammar_r3_20251227_192032/T3_0213__phi2_server_grammar__r3.json
T3_0214,AR,phi2_server_grammar,1,ok,1.4231,1.4058,28,28,1,outputs/logs/t3_phi2_server_grammar_r3_20251227_192032/T3_0214__phi2_server_grammar__r1.json
T3_0214,AR,phi2_server_grammar,2,ok,1.4021,1.3975,28,28,1,outputs/logs/t3_phi2_server_grammar_r3_20251227_192032/T3_0214__phi2_server_grammar__r2.json
T3_0214,AR,phi2_server_grammar,3,ok,1.4081,1.4036,28,28,1,outputs/logs/t3_phi2_server_grammar_r3_20251227_192032/T3_0214__phi2_server_grammar__r3.json
T3_0216,AR,phi2_server_grammar,1,ok,1.4177,1.4012,180,240,0,outputs/logs/t3_phi2_server_grammar_r3_20251227_192032/T3_0216__phi2_server_grammar__r1.json
T3_0216,AR,phi2_server_grammar,2,ok,1.4038,1.3991,180,240,0,outputs/logs/t3_phi2_server_grammar_r3_20251227_192032/T3_0216__phi2_server_grammar__r2.json
T3_0216,AR,phi2_server_grammar,3,ok,1.4057,1.4010,180,240,0,outputs/logs/t3_phi2_server_grammar_r3_20251227_192032/T3_0216__phi2_server_grammar__r3.json
T3_0216,AR,phi2_server_grammar,1,ok,1.4026,1.3980,180,240,0,outputs/logs/t3_phi2_server_grammar_r3_20251227_192032/T3_0216__phi2_server_grammar__r1.json
T3_0216,AR,phi2_server_grammar,2,ok,1.4055,1.4010,180,240,0,outputs/logs/t3_phi2_server_grammar_r3_20251227_192032/T3_0216__phi2_server_grammar__r2.json
T3_0216,AR,phi2_server_grammar,3,ok,1.4056,1.4009,180,240,0,outputs/logs/t3_phi2_server_grammar_r3_20251227_192032/T3_0216__phi2_server_grammar__r3.json
T3_0236,AR,phi2_server_grammar,1,ok,1.8864,1.8692,1060,1060,1,outputs/logs/t3_phi2_server_grammar_r3_20251227_192032/T3_0236__phi2_server_grammar__r1.json
